delay,freq,condition,trials.thisRepN,trials.thisTrialN,trials.thisN,trials.thisIndex,fixation.started,fixation.stopped,polygon_2.started,polygon_2.stopped,key_resp.keys,key_resp.rt,key_resp.started,key_resp.stopped,sound_1.started,sound_1.stopped,text.started,text.stopped,textbox.text,textbox.started,textbox.stopped,button.started,button.stopped,button.numClicks,button.timesOn,button.timesOff,participant,session,date,expName,psychopyVersion,frameRate,
0.1,1000,exp,0,0,0,9,40.695783199742436,41.71232759999111,41.55259449966252,None,space,1.0168635002337396,41.55259449966252,None,42.78275868990458,None,43.44811909971759,None,150,43.44811909971759,None,43.44811909971759,None,1,[4.926587000023574],[4.926606100052595],681866,001,2023-11-09_22h14.33.699,tutorial7,2022.1.4,60.414017276154865,
0.1,1000,exp,0,1,1,3,48.20867889979854,49.21046119974926,49.19359249994159,None,space,0.6803097003139555,49.19359249994159,None,49.979345589829606,None,50.48981669964269,None,100,50.48981669964269,None,50.48981669964269,None,2,"[4.926587000023574, 3.6587441000156105]","[4.926606100052595, 3.6587633001618087]",681866,001,2023-11-09_22h14.33.699,tutorial7,2022.1.4,60.414017276154865,
0.7,1000,exp,0,2,2,11,54.13675719965249,55.154537099879235,55.104749999940395,None,space,1.1004645004868507,55.104749999940395,None,56.936445789830756,None,57.44980049971491,None,500,57.44980049971491,None,57.44980049971491,None,3,"[4.926587000023574, 3.6587441000156105, 6.830130400136113]","[4.926606100052595, 3.6587633001618087, 6.830147400032729]",681866,001,2023-11-09_22h14.33.699,tutorial7,2022.1.4,60.414017276154865,
0.4,1000,exp,0,3,3,7,64.27747349999845,65.29563619988039,65.26153539959341,None,space,0.33133190078660846,65.26153539959341,None,66.01260518976487,None,66.52605219976977,None,200,66.52605219976977,None,66.52605219976977,None,4,"[4.926587000023574, 3.6587441000156105, 6.830130400136113, 4.260428300127387]","[4.926606100052595, 3.6587633001618087, 6.830147400032729, 4.260447300039232]",681866,001,2023-11-09_22h14.33.699,tutorial7,2022.1.4,60.414017276154865,
0.4,1000,exp,0,4,4,4,70.77162429969758,71.77426709979773,71.7538489997387,None,space,0.49452940048649907,71.7538489997387,None,72.65881248977966,None,73.18588819960132,None,350,73.18588819960132,None,73.18588819960132,None,5,"[4.926587000023574, 3.6587441000156105, 6.830130400136113, 4.260428300127387, 3.1372040999121964]","[4.926606100052595, 3.6587633001618087, 6.830147400032729, 4.260447300039232, 3.137223199941218]",681866,001,2023-11-09_22h14.33.699,tutorial7,2022.1.4,60.414017276154865,
0.1,400,unexp,0,5,5,0,76.31621570000425,77.31943859998137,77.29923499980941,None,space,0.6148169003427029,77.29923499980941,None,78.0177164896857,None,78.53231279971078,None,100,78.53231279971078,None,78.53231279971078,None,6,"[4.926587000023574, 3.6587441000156105, 6.830130400136113, 4.260428300127387, 3.1372040999121964, 10.600117300171405]","[4.926606100052595, 3.6587633001618087, 6.830147400032729, 4.260447300039232, 3.137223199941218, 10.600136400200427]",681866,001,2023-11-09_22h14.33.699,tutorial7,2022.1.4,60.414017276154865,
0.7,1000,exp,0,6,6,8,89.12118639983237,90.12355689983815,90.1036252998747,None,space,0.5735826003365219,90.1036252998747,None,91.38993868972175,None,91.9022588999942,None,550,91.9022588999942,None,91.9022588999942,None,7,"[4.926587000023574, 3.6587441000156105, 6.830130400136113, 4.260428300127387, 3.1372040999121964, 10.600117300171405, 4.031299399677664]","[4.926606100052595, 3.6587633001618087, 6.830147400032729, 4.260447300039232, 3.137223199941218, 10.600136400200427, 4.031315499916673]",681866,001,2023-11-09_22h14.33.699,tutorial7,2022.1.4,60.414017276154865,
0.7,400,unexp,0,7,7,2,95.93096229992807,96.93433899991214,96.91376529959962,None,space,0.3730958001688123,96.91376529959962,None,98.016876989929,None,98.54570549959317,None,350,98.54570549959317,None,98.54570549959317,None,8,"[4.926587000023574, 3.6587441000156105, 6.830130400136113, 4.260428300127387, 3.1372040999121964, 10.600117300171405, 4.031299399677664, 4.760667099617422]","[4.926606100052595, 3.6587633001618087, 6.830147400032729, 4.260447300039232, 3.137223199941218, 10.600136400200427, 4.031315499916673, 4.760686099994928]",681866,001,2023-11-09_22h14.33.699,tutorial7,2022.1.4,60.414017276154865,
0.4,400,unexp,0,8,8,1,103.29137629969046,104.29248389974236,104.25906619988382,None,space,0.3172199004329741,104.25906619988382,None,104.97723728972487,None,105.48941639997065,None,200,105.48941639997065,None,105.48941639997065,None,9,"[4.926587000023574, 3.6587441000156105, 6.830130400136113, 4.260428300127387, 3.1372040999121964, 10.600117300171405, 4.031299399677664, 4.760667099617422, 3.8669320000335574]","[4.926606100052595, 3.6587633001618087, 6.830147400032729, 4.260447300039232, 3.137223199941218, 10.600136400200427, 4.031315499916673, 4.760686099994928, 3.8669516001828015]",681866,001,2023-11-09_22h14.33.699,tutorial7,2022.1.4,60.414017276154865,
0.7,1000,exp,0,9,9,5,109.35232109995559,110.3679185998626,110.33880429994315,None,space,0.3279729005880654,110.33880429994315,None,111.3710916898679,None,111.88311839988455,None,600,111.88311839988455,None,111.88311839988455,None,10,"[4.926587000023574, 3.6587441000156105, 6.830130400136113, 4.260428300127387, 3.1372040999121964, 10.600117300171405, 4.031299399677664, 4.760667099617422, 3.8669320000335574, 2.968038400169462]","[4.926606100052595, 3.6587633001618087, 6.830147400032729, 4.260447300039232, 3.137223199941218, 10.600136400200427, 4.031315499916673, 4.760686099994928, 3.8669516001828015, 2.9680703999474645]",681866,001,2023-11-09_22h14.33.699,tutorial7,2022.1.4,60.414017276154865,
0.4,1000,exp,0,10,10,10,114.84694289974868,115.84983029961586,115.8303678999655,None,space,0.7001353004015982,115.8303678999655,None,116.93269249000586,None,117.42767070000991,None,100,117.42767070000991,None,117.42767070000991,None,11,"[4.926587000023574, 3.6587441000156105, 6.830130400136113, 4.260428300127387, 3.1372040999121964, 10.600117300171405, 4.031299399677664, 4.760667099617422, 3.8669320000335574, 2.968038400169462, 3.111312299966812]","[4.926606100052595, 3.6587633001618087, 6.830147400032729, 4.260447300039232, 3.137223199941218, 10.600136400200427, 4.031315499916673, 4.760686099994928, 3.8669516001828015, 2.9680703999474645, 3.111328999977559]",681866,001,2023-11-09_22h14.33.699,tutorial7,2022.1.4,60.414017276154865,
0.1,1000,exp,0,11,11,6,120.52761919982731,121.52758989995345,121.51100069982931,None,space,0.3144716005772352,121.51100069982931,None,121.94334498974494,None,122.45675929961726,None,150,122.45675929961726,None,122.45675929961726,None,12,"[4.926587000023574, 3.6587441000156105, 6.830130400136113, 4.260428300127387, 3.1372040999121964, 10.600117300171405, 4.031299399677664, 4.760667099617422, 3.8669320000335574, 2.968038400169462, 3.111312299966812, 4.7192362998612225]","[4.926606100052595, 3.6587633001618087, 6.830147400032729, 4.260447300039232, 3.137223199941218, 10.600136400200427, 4.031315499916673, 4.760686099994928, 3.8669516001828015, 2.9680703999474645, 3.111328999977559, 4.719254700001329]",681866,001,2023-11-09_22h14.33.699,tutorial7,2022.1.4,60.414017276154865,
0.7,400,unexp,1,0,12,2,127.16890459973365,128.1713552000001,128.15178309986368,None,space,0.3001364003866911,128.15178309986368,None,129.1710155899171,None,129.68397499993443,None,350,129.68397499993443,None,129.68397499993443,None,13,"[4.926587000023574, 3.6587441000156105, 6.830130400136113, 4.260428300127387, 3.1372040999121964, 10.600117300171405, 4.031299399677664, 4.760667099617422, 3.8669320000335574, 2.968038400169462, 3.111312299966812, 4.7192362998612225, 3.518540999852121]","[4.926606100052595, 3.6587633001618087, 6.830147400032729, 4.260447300039232, 3.137223199941218, 10.600136400200427, 4.031315499916673, 4.760686099994928, 3.8669516001828015, 2.9680703999474645, 3.111328999977559, 4.719254700001329, 3.518559199757874]",681866,001,2023-11-09_22h14.33.699,tutorial7,2022.1.4,60.414017276154865,
0.7,1000,exp,1,1,13,5,133.1964950999245,134.19938859995455,134.17942489963025,None,space,0.541274500079453,134.17942489963025,None,135.43196918996983,None,135.9438852998428,None,200,135.9438852998428,None,135.9438852998428,None,14,"[4.926587000023574, 3.6587441000156105, 6.830130400136113, 4.260428300127387, 3.1372040999121964, 10.600117300171405, 4.031299399677664, 4.760667099617422, 3.8669320000335574, 2.968038400169462, 3.111312299966812, 4.7192362998612225, 3.518540999852121, 2.744858399964869]","[4.926606100052595, 3.6587633001618087, 6.830147400032729, 4.260447300039232, 3.137223199941218, 10.600136400200427, 4.031315499916673, 4.760686099994928, 3.8669516001828015, 2.9680703999474645, 3.111328999977559, 4.719254700001329, 3.518559199757874, 2.7448761998675764]",681866,001,2023-11-09_22h14.33.699,tutorial7,2022.1.4,60.414017276154865,
0.4,1000,exp,1,2,14,10,138.67453199997544,139.6775709996,139.66078879963607,None,space,0.3158709001727402,139.66078879963607,None,140.37647878979334,None,140.87110869958997,None,100,140.87110869958997,None,140.87110869958997,None,15,"[4.926587000023574, 3.6587441000156105, 6.830130400136113, 4.260428300127387, 3.1372040999121964, 10.600117300171405, 4.031299399677664, 4.760667099617422, 3.8669320000335574, 2.968038400169462, 3.111312299966812, 4.7192362998612225, 3.518540999852121, 2.744858399964869, 3.4388148998841643]","[4.926606100052595, 3.6587633001618087, 6.830147400032729, 4.260447300039232, 3.137223199941218, 10.600136400200427, 4.031315499916673, 4.760686099994928, 3.8669516001828015, 2.9680703999474645, 3.111328999977559, 4.719254700001329, 3.518559199757874, 2.7448761998675764, 3.438829299993813]",681866,001,2023-11-09_22h14.33.699,tutorial7,2022.1.4,60.414017276154865,
0.4,1000,exp,1,3,15,4,144.3047727998346,145.3190647996962,145.2859010999091,None,space,0.34176040021702647,145.2859010999091,None,146.03688948969358,None,146.54994509974495,None,150,146.54994509974495,None,146.54994509974495,None,16,"[4.926587000023574, 3.6587441000156105, 6.830130400136113, 4.260428300127387, 3.1372040999121964, 10.600117300171405, 4.031299399677664, 4.760667099617422, 3.8669320000335574, 2.968038400169462, 3.111312299966812, 4.7192362998612225, 3.518540999852121, 2.744858399964869, 3.4388148998841643, 2.815760999917984]","[4.926606100052595, 3.6587633001618087, 6.830147400032729, 4.260447300039232, 3.137223199941218, 10.600136400200427, 4.031315499916673, 4.760686099994928, 3.8669516001828015, 2.9680703999474645, 3.111328999977559, 4.719254700001329, 3.518559199757874, 2.7448761998675764, 3.438829299993813, 2.815779499709606]",681866,001,2023-11-09_22h14.33.699,tutorial7,2022.1.4,60.414017276154865,
0.4,400,unexp,1,4,16,1,149.3650412997231,150.36704039992765,150.34715489996597,None,space,0.4311067000962794,150.34715489996597,None,151.18167498982513,None,151.6969413999468,None,250,151.6969413999468,None,151.6969413999468,None,17,"[4.926587000023574, 3.6587441000156105, 6.830130400136113, 4.260428300127387, 3.1372040999121964, 10.600117300171405, 4.031299399677664, 4.760667099617422, 3.8669320000335574, 2.968038400169462, 3.111312299966812, 4.7192362998612225, 3.518540999852121, 2.744858399964869, 3.4388148998841643, 2.815760999917984, 7.273828099947423]","[4.926606100052595, 3.6587633001618087, 6.830147400032729, 4.260447300039232, 3.137223199941218, 10.600136400200427, 4.031315499916673, 4.760686099994928, 3.8669516001828015, 2.9680703999474645, 3.111328999977559, 4.719254700001329, 3.518559199757874, 2.7448761998675764, 3.438829299993813, 2.815779499709606, 7.273848699871451]",681866,001,2023-11-09_22h14.33.699,tutorial7,2022.1.4,60.414017276154865,
0.1,1000,exp,1,5,17,6,158.9556970000267,159.97525009978563,159.92518009990454,None,space,0.29913110053166747,159.92518009990454,None,160.32386408974418,None,160.83770109992474,None,100,160.83770109992474,None,160.83770109992474,None,18,"[4.926587000023574, 3.6587441000156105, 6.830130400136113, 4.260428300127387, 3.1372040999121964, 10.600117300171405, 4.031299399677664, 4.760667099617422, 3.8669320000335574, 2.968038400169462, 3.111312299966812, 4.7192362998612225, 3.518540999852121, 2.744858399964869, 3.4388148998841643, 2.815760999917984, 7.273828099947423, 6.954484899993986]","[4.926606100052595, 3.6587633001618087, 6.830147400032729, 4.260447300039232, 3.137223199941218, 10.600136400200427, 4.031315499916673, 4.760686099994928, 3.8669516001828015, 2.9680703999474645, 3.111328999977559, 4.719254700001329, 3.518559199757874, 2.7448761998675764, 3.438829299993813, 2.815779499709606, 7.273848699871451, 6.954502999782562]",681866,001,2023-11-09_22h14.33.699,tutorial7,2022.1.4,60.414017276154865,
0.4,1000,exp,1,6,18,7,167.78075809963048,168.78351719956845,168.76321739982814,None,space,0.6012188005261123,168.76321739982814,None,169.7660075895954,None,170.27866539964452,None,150,170.27866539964452,None,170.27866539964452,None,19,"[4.926587000023574, 3.6587441000156105, 6.830130400136113, 4.260428300127387, 3.1372040999121964, 10.600117300171405, 4.031299399677664, 4.760667099617422, 3.8669320000335574, 2.968038400169462, 3.111312299966812, 4.7192362998612225, 3.518540999852121, 2.744858399964869, 3.4388148998841643, 2.815760999917984, 7.273828099947423, 6.954484899993986, 9.343359000049531]","[4.926606100052595, 3.6587633001618087, 6.830147400032729, 4.260447300039232, 3.137223199941218, 10.600136400200427, 4.031315499916673, 4.760686099994928, 3.8669516001828015, 2.9680703999474645, 3.111328999977559, 4.719254700001329, 3.518559199757874, 2.7448761998675764, 3.438829299993813, 2.815779499709606, 7.273848699871451, 6.954502999782562, 9.343377199955285]",681866,001,2023-11-09_22h14.33.699,tutorial7,2022.1.4,60.414017276154865,
0.1,1000,exp,1,7,19,9,179.61994969984517,180.63902190001681,180.5889580999501,None,space,0.27821370074525476,180.5889580999501,None,180.9720691898372,None,181.46858759969473,None,100,181.46858759969473,None,181.46858759969473,None,20,"[4.926587000023574, 3.6587441000156105, 6.830130400136113, 4.260428300127387, 3.1372040999121964, 10.600117300171405, 4.031299399677664, 4.760667099617422, 3.8669320000335574, 2.968038400169462, 3.111312299966812, 4.7192362998612225, 3.518540999852121, 2.744858399964869, 3.4388148998841643, 2.815760999917984, 7.273828099947423, 6.954484899993986, 9.343359000049531, 2.231115700211376]","[4.926606100052595, 3.6587633001618087, 6.830147400032729, 4.260447300039232, 3.137223199941218, 10.600136400200427, 4.031315499916673, 4.760686099994928, 3.8669516001828015, 2.9680703999474645, 3.111328999977559, 4.719254700001329, 3.518559199757874, 2.7448761998675764, 3.438829299993813, 2.815779499709606, 7.273848699871451, 6.954502999782562, 9.343377199955285, 2.2311344002373517]",681866,001,2023-11-09_22h14.33.699,tutorial7,2022.1.4,60.414017276154865,
0.1,400,unexp,1,8,20,0,183.6993265999481,184.70228669978678,184.6818474996835,None,space,0.3319003004580736,184.6818474996835,None,185.1183507898357,None,185.63133469969034,None,350,185.63133469969034,None,185.63133469969034,None,21,"[4.926587000023574, 3.6587441000156105, 6.830130400136113, 4.260428300127387, 3.1372040999121964, 10.600117300171405, 4.031299399677664, 4.760667099617422, 3.8669320000335574, 2.968038400169462, 3.111312299966812, 4.7192362998612225, 3.518540999852121, 2.744858399964869, 3.4388148998841643, 2.815760999917984, 7.273828099947423, 6.954484899993986, 9.343359000049531, 2.231115700211376, 3.3966342001222074]","[4.926606100052595, 3.6587633001618087, 6.830147400032729, 4.260447300039232, 3.137223199941218, 10.600136400200427, 4.031315499916673, 4.760686099994928, 3.8669516001828015, 2.9680703999474645, 3.111328999977559, 4.719254700001329, 3.518559199757874, 2.7448761998675764, 3.438829299993813, 2.815779499709606, 7.273848699871451, 6.954502999782562, 9.343377199955285, 2.2311344002373517, 3.396652899682522]",681866,001,2023-11-09_22h14.33.699,tutorial7,2022.1.4,60.414017276154865,
0.7,1000,exp,1,9,21,8,189.0287181995809,190.04761309968308,190.01028109993786,None,space,0.30259079998359084,190.01028109993786,None,191.02998398984784,None,191.54391929972917,None,100,191.54391929972917,None,191.54391929972917,None,22,"[4.926587000023574, 3.6587441000156105, 6.830130400136113, 4.260428300127387, 3.1372040999121964, 10.600117300171405, 4.031299399677664, 4.760667099617422, 3.8669320000335574, 2.968038400169462, 3.111312299966812, 4.7192362998612225, 3.518540999852121, 2.744858399964869, 3.4388148998841643, 2.815760999917984, 7.273828099947423, 6.954484899993986, 9.343359000049531, 2.231115700211376, 3.3966342001222074, 7.054486299864948]","[4.926606100052595, 3.6587633001618087, 6.830147400032729, 4.260447300039232, 3.137223199941218, 10.600136400200427, 4.031315499916673, 4.760686099994928, 3.8669516001828015, 2.9680703999474645, 3.111328999977559, 4.719254700001329, 3.518559199757874, 2.7448761998675764, 3.438829299993813, 2.815779499709606, 7.273848699871451, 6.954502999782562, 9.343377199955285, 2.2311344002373517, 3.396652899682522, 7.054505399893969]",681866,001,2023-11-09_22h14.33.699,tutorial7,2022.1.4,60.414017276154865,
0.1,1000,exp,1,10,22,3,198.5852908999659,199.58768559992313,199.5679607996717,None,space,0.8877082006074488,199.5679607996717,None,200.60068728956395,None,201.10025579994544,None,200,201.10025579994544,None,201.10025579994544,None,23,"[4.926587000023574, 3.6587441000156105, 6.830130400136113, 4.260428300127387, 3.1372040999121964, 10.600117300171405, 4.031299399677664, 4.760667099617422, 3.8669320000335574, 2.968038400169462, 3.111312299966812, 4.7192362998612225, 3.518540999852121, 2.744858399964869, 3.4388148998841643, 2.815760999917984, 7.273828099947423, 6.954484899993986, 9.343359000049531, 2.231115700211376, 3.3966342001222074, 7.054486299864948, 4.5959429000504315]","[4.926606100052595, 3.6587633001618087, 6.830147400032729, 4.260447300039232, 3.137223199941218, 10.600136400200427, 4.031315499916673, 4.760686099994928, 3.8669516001828015, 2.9680703999474645, 3.111328999977559, 4.719254700001329, 3.518559199757874, 2.7448761998675764, 3.438829299993813, 2.815779499709606, 7.273848699871451, 6.954502999782562, 9.343377199955285, 2.2311344002373517, 3.396652899682522, 7.054505399893969, 4.595962500199676]",681866,001,2023-11-09_22h14.33.699,tutorial7,2022.1.4,60.414017276154865,
0.7,1000,exp,1,11,23,11,205.69512119982392,206.69890109961852,206.6774982996285,None,space,0.7369742002338171,206.6774982996285,None,208.11366518954748,None,208.60918409982696,None,250,208.60918409982696,None,208.60918409982696,None,24,"[4.926587000023574, 3.6587441000156105, 6.830130400136113, 4.260428300127387, 3.1372040999121964, 10.600117300171405, 4.031299399677664, 4.760667099617422, 3.8669320000335574, 2.968038400169462, 3.111312299966812, 4.7192362998612225, 3.518540999852121, 2.744858399964869, 3.4388148998841643, 2.815760999917984, 7.273828099947423, 6.954484899993986, 9.343359000049531, 2.231115700211376, 3.3966342001222074, 7.054486299864948, 4.5959429000504315, 2.2275356999598444]","[4.926606100052595, 3.6587633001618087, 6.830147400032729, 4.260447300039232, 3.137223199941218, 10.600136400200427, 4.031315499916673, 4.760686099994928, 3.8669516001828015, 2.9680703999474645, 3.111328999977559, 4.719254700001329, 3.518559199757874, 2.7448761998675764, 3.438829299993813, 2.815779499709606, 7.273848699871451, 6.954502999782562, 9.343377199955285, 2.2311344002373517, 3.396652899682522, 7.054505399893969, 4.595962500199676, 2.2275543003343046]",681866,001,2023-11-09_22h14.33.699,tutorial7,2022.1.4,60.414017276154865,
0.7,400,unexp,2,0,24,2,210.84104939969257,211.8433645996265,211.8233924997039,None,space,0.38573560025542974,211.8233924997039,None,212.90909908986652,None,213.40445829974487,None,500,213.40445829974487,None,213.40445829974487,None,25,"[4.926587000023574, 3.6587441000156105, 6.830130400136113, 4.260428300127387, 3.1372040999121964, 10.600117300171405, 4.031299399677664, 4.760667099617422, 3.8669320000335574, 2.968038400169462, 3.111312299966812, 4.7192362998612225, 3.518540999852121, 2.744858399964869, 3.4388148998841643, 2.815760999917984, 7.273828099947423, 6.954484899993986, 9.343359000049531, 2.231115700211376, 3.3966342001222074, 7.054486299864948, 4.5959429000504315, 2.2275356999598444, 3.258609800133854]","[4.926606100052595, 3.6587633001618087, 6.830147400032729, 4.260447300039232, 3.137223199941218, 10.600136400200427, 4.031315499916673, 4.760686099994928, 3.8669516001828015, 2.9680703999474645, 3.111328999977559, 4.719254700001329, 3.518559199757874, 2.7448761998675764, 3.438829299993813, 2.815779499709606, 7.273848699871451, 6.954502999782562, 9.343377199955285, 2.2311344002373517, 3.396652899682522, 7.054505399893969, 4.595962500199676, 2.2275543003343046, 3.25862850015983]",681866,001,2023-11-09_22h14.33.699,tutorial7,2022.1.4,60.414017276154865,
0.7,1000,exp,2,1,25,8,216.66885109990835,217.68757739989087,217.63840499985963,None,space,0.5551023003645241,217.63840499985963,None,218.90399878979662,None,219.41610889974982,None,400,219.41610889974982,None,219.41610889974982,None,26,"[4.926587000023574, 3.6587441000156105, 6.830130400136113, 4.260428300127387, 3.1372040999121964, 10.600117300171405, 4.031299399677664, 4.760667099617422, 3.8669320000335574, 2.968038400169462, 3.111312299966812, 4.7192362998612225, 3.518540999852121, 2.744858399964869, 3.4388148998841643, 2.815760999917984, 7.273828099947423, 6.954484899993986, 9.343359000049531, 2.231115700211376, 3.3966342001222074, 7.054486299864948, 4.5959429000504315, 2.2275356999598444, 3.258609800133854, 3.12636849982664]","[4.926606100052595, 3.6587633001618087, 6.830147400032729, 4.260447300039232, 3.137223199941218, 10.600136400200427, 4.031315499916673, 4.760686099994928, 3.8669516001828015, 2.9680703999474645, 3.111328999977559, 4.719254700001329, 3.518559199757874, 2.7448761998675764, 3.438829299993813, 2.815779499709606, 7.273848699871451, 6.954502999782562, 9.343377199955285, 2.2311344002373517, 3.396652899682522, 7.054505399893969, 4.595962500199676, 2.2275543003343046, 3.25862850015983, 3.126389999873936]",681866,001,2023-11-09_22h14.33.699,tutorial7,2022.1.4,60.414017276154865,
0.7,1000,exp,2,2,26,11,222.52966240001842,223.53306199982762,223.51255759969354,None,space,0.3999931002035737,223.51255759969354,None,224.6148191899527,None,225.11036799987778,None,300,225.11036799987778,None,225.11036799987778,None,27,"[4.926587000023574, 3.6587441000156105, 6.830130400136113, 4.260428300127387, 3.1372040999121964, 10.600117300171405, 4.031299399677664, 4.760667099617422, 3.8669320000335574, 2.968038400169462, 3.111312299966812, 4.7192362998612225, 3.518540999852121, 2.744858399964869, 3.4388148998841643, 2.815760999917984, 7.273828099947423, 6.954484899993986, 9.343359000049531, 2.231115700211376, 3.3966342001222074, 7.054486299864948, 4.5959429000504315, 2.2275356999598444, 3.258609800133854, 3.12636849982664, 2.165680699981749]","[4.926606100052595, 3.6587633001618087, 6.830147400032729, 4.260447300039232, 3.137223199941218, 10.600136400200427, 4.031315499916673, 4.760686099994928, 3.8669516001828015, 2.9680703999474645, 3.111328999977559, 4.719254700001329, 3.518559199757874, 2.7448761998675764, 3.438829299993813, 2.815779499709606, 7.273848699871451, 6.954502999782562, 9.343377199955285, 2.2311344002373517, 3.396652899682522, 7.054505399893969, 4.595962500199676, 2.2275543003343046, 3.25862850015983, 3.126389999873936, 2.1656973003409803]",681866,001,2023-11-09_22h14.33.699,tutorial7,2022.1.4,60.414017276154865,
0.1,400,unexp,2,3,27,0,227.2745780996047,228.27760049980134,228.25792709970847,None,space,0.3550493004731834,228.25792709970847,None,228.7444028895814,None,229.25715520000085,None,200,229.25715520000085,None,229.25715520000085,None,28,"[4.926587000023574, 3.6587441000156105, 6.830130400136113, 4.260428300127387, 3.1372040999121964, 10.600117300171405, 4.031299399677664, 4.760667099617422, 3.8669320000335574, 2.968038400169462, 3.111312299966812, 4.7192362998612225, 3.518540999852121, 2.744858399964869, 3.4388148998841643, 2.815760999917984, 7.273828099947423, 6.954484899993986, 9.343359000049531, 2.231115700211376, 3.3966342001222074, 7.054486299864948, 4.5959429000504315, 2.2275356999598444, 3.258609800133854, 3.12636849982664, 2.165680699981749, 4.341372599825263]","[4.926606100052595, 3.6587633001618087, 6.830147400032729, 4.260447300039232, 3.137223199941218, 10.600136400200427, 4.031315499916673, 4.760686099994928, 3.8669516001828015, 2.9680703999474645, 3.111328999977559, 4.719254700001329, 3.518559199757874, 2.7448761998675764, 3.438829299993813, 2.815779499709606, 7.273848699871451, 6.954502999782562, 9.343377199955285, 2.2311344002373517, 3.396652899682522, 7.054505399893969, 4.595962500199676, 2.2275543003343046, 3.25862850015983, 3.126389999873936, 2.1656973003409803, 4.341391099616885]",681866,001,2023-11-09_22h14.33.699,tutorial7,2022.1.4,60.414017276154865,
0.1,1000,exp,2,4,28,6,233.5858612996526,234.5889662997797,234.56825089966878,None,space,0.30171880032867193,234.56825089966878,None,234.97201258963906,None,235.48461289983243,None,170,235.48461289983243,None,235.48461289983243,None,29,"[4.926587000023574, 3.6587441000156105, 6.830130400136113, 4.260428300127387, 3.1372040999121964, 10.600117300171405, 4.031299399677664, 4.760667099617422, 3.8669320000335574, 2.968038400169462, 3.111312299966812, 4.7192362998612225, 3.518540999852121, 2.744858399964869, 3.4388148998841643, 2.815760999917984, 7.273828099947423, 6.954484899993986, 9.343359000049531, 2.231115700211376, 3.3966342001222074, 7.054486299864948, 4.5959429000504315, 2.2275356999598444, 3.258609800133854, 3.12636849982664, 2.165680699981749, 4.341372599825263, 7.226951199583709]","[4.926606100052595, 3.6587633001618087, 6.830147400032729, 4.260447300039232, 3.137223199941218, 10.600136400200427, 4.031315499916673, 4.760686099994928, 3.8669516001828015, 2.9680703999474645, 3.111328999977559, 4.719254700001329, 3.518559199757874, 2.7448761998675764, 3.438829299993813, 2.815779499709606, 7.273848699871451, 6.954502999782562, 9.343377199955285, 2.2311344002373517, 3.396652899682522, 7.054505399893969, 4.595962500199676, 2.2275543003343046, 3.25862850015983, 3.126389999873936, 2.1656973003409803, 4.341391099616885, 7.2269697999581695]",681866,001,2023-11-09_22h14.33.699,tutorial7,2022.1.4,60.414017276154865,
0.4,400,unexp,2,5,29,1,242.69402539962903,243.69571499992162,243.67946569994092,None,space,0.33836140064522624,243.67946569994092,None,244.42978998967448,None,244.94221619982272,None,200,244.94221619982272,None,244.94221619982272,None,30,"[4.926587000023574, 3.6587441000156105, 6.830130400136113, 4.260428300127387, 3.1372040999121964, 10.600117300171405, 4.031299399677664, 4.760667099617422, 3.8669320000335574, 2.968038400169462, 3.111312299966812, 4.7192362998612225, 3.518540999852121, 2.744858399964869, 3.4388148998841643, 2.815760999917984, 7.273828099947423, 6.954484899993986, 9.343359000049531, 2.231115700211376, 3.3966342001222074, 7.054486299864948, 4.5959429000504315, 2.2275356999598444, 3.258609800133854, 3.12636849982664, 2.165680699981749, 4.341372599825263, 7.226951199583709, 7.065196800045669]","[4.926606100052595, 3.6587633001618087, 6.830147400032729, 4.260447300039232, 3.137223199941218, 10.600136400200427, 4.031315499916673, 4.760686099994928, 3.8669516001828015, 2.9680703999474645, 3.111328999977559, 4.719254700001329, 3.518559199757874, 2.7448761998675764, 3.438829299993813, 2.815779499709606, 7.273848699871451, 6.954502999782562, 9.343377199955285, 2.2311344002373517, 3.396652899682522, 7.054505399893969, 4.595962500199676, 2.2275543003343046, 3.25862850015983, 3.126389999873936, 2.1656973003409803, 4.341391099616885, 7.2269697999581695, 7.065216499846429]",681866,001,2023-11-09_22h14.33.699,tutorial7,2022.1.4,60.414017276154865,
0.4,1000,exp,2,6,30,4,252.00212979968637,253.0058194999583,252.98447109991685,None,space,1.171323200687766,252.98447109991685,None,254.58649228974247,None,255.09923549974337,None,250,255.09923549974337,None,255.09923549974337,None,31,"[4.926587000023574, 3.6587441000156105, 6.830130400136113, 4.260428300127387, 3.1372040999121964, 10.600117300171405, 4.031299399677664, 4.760667099617422, 3.8669320000335574, 2.968038400169462, 3.111312299966812, 4.7192362998612225, 3.518540999852121, 2.744858399964869, 3.4388148998841643, 2.815760999917984, 7.273828099947423, 6.954484899993986, 9.343359000049531, 2.231115700211376, 3.3966342001222074, 7.054486299864948, 4.5959429000504315, 2.2275356999598444, 3.258609800133854, 3.12636849982664, 2.165680699981749, 4.341372599825263, 7.226951199583709, 7.065196800045669, 4.044645399786532]","[4.926606100052595, 3.6587633001618087, 6.830147400032729, 4.260447300039232, 3.137223199941218, 10.600136400200427, 4.031315499916673, 4.760686099994928, 3.8669516001828015, 2.9680703999474645, 3.111328999977559, 4.719254700001329, 3.518559199757874, 2.7448761998675764, 3.438829299993813, 2.815779499709606, 7.273848699871451, 6.954502999782562, 9.343377199955285, 2.2311344002373517, 3.396652899682522, 7.054505399893969, 4.595962500199676, 2.2275543003343046, 3.25862850015983, 3.126389999873936, 2.1656973003409803, 4.341391099616885, 7.2269697999581695, 7.065216499846429, 4.044663899578154]",681866,001,2023-11-09_22h14.33.699,tutorial7,2022.1.4,60.414017276154865,
0.4,1000,exp,2,7,31,10,259.14522009994835,260.14773730002344,260.1278196997009,None,space,0.3298288006335497,260.1278196997009,None,260.8642720896285,None,261.37686809990555,None,250,261.37686809990555,None,261.37686809990555,None,32,"[4.926587000023574, 3.6587441000156105, 6.830130400136113, 4.260428300127387, 3.1372040999121964, 10.600117300171405, 4.031299399677664, 4.760667099617422, 3.8669320000335574, 2.968038400169462, 3.111312299966812, 4.7192362998612225, 3.518540999852121, 2.744858399964869, 3.4388148998841643, 2.815760999917984, 7.273828099947423, 6.954484899993986, 9.343359000049531, 2.231115700211376, 3.3966342001222074, 7.054486299864948, 4.5959429000504315, 2.2275356999598444, 3.258609800133854, 3.12636849982664, 2.165680699981749, 4.341372599825263, 7.226951199583709, 7.065196800045669, 4.044645399786532, 3.088398799765855]","[4.926606100052595, 3.6587633001618087, 6.830147400032729, 4.260447300039232, 3.137223199941218, 10.600136400200427, 4.031315499916673, 4.760686099994928, 3.8669516001828015, 2.9680703999474645, 3.111328999977559, 4.719254700001329, 3.518559199757874, 2.7448761998675764, 3.438829299993813, 2.815779499709606, 7.273848699871451, 6.954502999782562, 9.343377199955285, 2.2311344002373517, 3.396652899682522, 7.054505399893969, 4.595962500199676, 2.2275543003343046, 3.25862850015983, 3.126389999873936, 2.1656973003409803, 4.341391099616885, 7.2269697999581695, 7.065216499846429, 4.044663899578154, 3.088417099788785]",681866,001,2023-11-09_22h14.33.699,tutorial7,2022.1.4,60.414017276154865,
0.1,1000,exp,2,8,32,9,264.4573134998791,265.47644869983196,265.4263624995947,None,space,0.6403140001930296,265.4263624995947,None,266.176545189647,None,266.6884588999674,None,190,266.6884588999674,None,266.6884588999674,None,33,"[4.926587000023574, 3.6587441000156105, 6.830130400136113, 4.260428300127387, 3.1372040999121964, 10.600117300171405, 4.031299399677664, 4.760667099617422, 3.8669320000335574, 2.968038400169462, 3.111312299966812, 4.7192362998612225, 3.518540999852121, 2.744858399964869, 3.4388148998841643, 2.815760999917984, 7.273828099947423, 6.954484899993986, 9.343359000049531, 2.231115700211376, 3.3966342001222074, 7.054486299864948, 4.5959429000504315, 2.2275356999598444, 3.258609800133854, 3.12636849982664, 2.165680699981749, 4.341372599825263, 7.226951199583709, 7.065196800045669, 4.044645399786532, 3.088398799765855, 4.7316575003787875]","[4.926606100052595, 3.6587633001618087, 6.830147400032729, 4.260447300039232, 3.137223199941218, 10.600136400200427, 4.031315499916673, 4.760686099994928, 3.8669516001828015, 2.9680703999474645, 3.111328999977559, 4.719254700001329, 3.518559199757874, 2.7448761998675764, 3.438829299993813, 2.815779499709606, 7.273848699871451, 6.954502999782562, 9.343377199955285, 2.2311344002373517, 3.396652899682522, 7.054505399893969, 4.595962500199676, 2.2275543003343046, 3.25862850015983, 3.126389999873936, 2.1656973003409803, 4.341391099616885, 7.2269697999581695, 7.065216499846429, 4.044663899578154, 3.088417099788785, 4.731673600152135]",681866,001,2023-11-09_22h14.33.699,tutorial7,2022.1.4,60.414017276154865,
0.7,1000,exp,2,9,33,5,271.41691749962047,272.4190710997209,272.38567340001464,None,space,0.36783000035211444,272.38567340001464,None,273.48552458961495,None,273.99840569961816,None,200,273.99840569961816,None,273.99840569961816,None,34,"[4.926587000023574, 3.6587441000156105, 6.830130400136113, 4.260428300127387, 3.1372040999121964, 10.600117300171405, 4.031299399677664, 4.760667099617422, 3.8669320000335574, 2.968038400169462, 3.111312299966812, 4.7192362998612225, 3.518540999852121, 2.744858399964869, 3.4388148998841643, 2.815760999917984, 7.273828099947423, 6.954484899993986, 9.343359000049531, 2.231115700211376, 3.3966342001222074, 7.054486299864948, 4.5959429000504315, 2.2275356999598444, 3.258609800133854, 3.12636849982664, 2.165680699981749, 4.341372599825263, 7.226951199583709, 7.065196800045669, 4.044645399786532, 3.088398799765855, 4.7316575003787875, 7.483609399758279]","[4.926606100052595, 3.6587633001618087, 6.830147400032729, 4.260447300039232, 3.137223199941218, 10.600136400200427, 4.031315499916673, 4.760686099994928, 3.8669516001828015, 2.9680703999474645, 3.111328999977559, 4.719254700001329, 3.518559199757874, 2.7448761998675764, 3.438829299993813, 2.815779499709606, 7.273848699871451, 6.954502999782562, 9.343377199955285, 2.2311344002373517, 3.396652899682522, 7.054505399893969, 4.595962500199676, 2.2275543003343046, 3.25862850015983, 3.126389999873936, 2.1656973003409803, 4.341391099616885, 7.2269697999581695, 7.065216499846429, 4.044663899578154, 3.088417099788785, 4.731673600152135, 7.483628099784255]",681866,001,2023-11-09_22h14.33.699,tutorial7,2022.1.4,60.414017276154865,
0.1,1000,exp,2,10,34,3,281.47466109972447,282.4778777998872,282.45736809959635,None,space,0.2966862004250288,282.45736809959635,None,282.86061548995787,None,283.37343829963356,None,100,283.37343829963356,None,283.37343829963356,None,35,"[4.926587000023574, 3.6587441000156105, 6.830130400136113, 4.260428300127387, 3.1372040999121964, 10.600117300171405, 4.031299399677664, 4.760667099617422, 3.8669320000335574, 2.968038400169462, 3.111312299966812, 4.7192362998612225, 3.518540999852121, 2.744858399964869, 3.4388148998841643, 2.815760999917984, 7.273828099947423, 6.954484899993986, 9.343359000049531, 2.231115700211376, 3.3966342001222074, 7.054486299864948, 4.5959429000504315, 2.2275356999598444, 3.258609800133854, 3.12636849982664, 2.165680699981749, 4.341372599825263, 7.226951199583709, 7.065196800045669, 4.044645399786532, 3.088398799765855, 4.7316575003787875, 7.483609399758279, 4.870948300231248]","[4.926606100052595, 3.6587633001618087, 6.830147400032729, 4.260447300039232, 3.137223199941218, 10.600136400200427, 4.031315499916673, 4.760686099994928, 3.8669516001828015, 2.9680703999474645, 3.111328999977559, 4.719254700001329, 3.518559199757874, 2.7448761998675764, 3.438829299993813, 2.815779499709606, 7.273848699871451, 6.954502999782562, 9.343377199955285, 2.2311344002373517, 3.396652899682522, 7.054505399893969, 4.595962500199676, 2.2275543003343046, 3.25862850015983, 3.126389999873936, 2.1656973003409803, 4.341391099616885, 7.2269697999581695, 7.065216499846429, 4.044663899578154, 3.088417099788785, 4.731673600152135, 7.483628099784255, 4.870966000016779]",681866,001,2023-11-09_22h14.33.699,tutorial7,2022.1.4,60.414017276154865,
0.4,1000,exp,2,11,35,7,288.23462529992685,289.25409909989685,289.204080699943,None,space,0.2777792005799711,289.204080699943,None,289.88713928959334,None,290.40012489957735,None,100,290.40012489957735,None,290.40012489957735,None,36,"[4.926587000023574, 3.6587441000156105, 6.830130400136113, 4.260428300127387, 3.1372040999121964, 10.600117300171405, 4.031299399677664, 4.760667099617422, 3.8669320000335574, 2.968038400169462, 3.111312299966812, 4.7192362998612225, 3.518540999852121, 2.744858399964869, 3.4388148998841643, 2.815760999917984, 7.273828099947423, 6.954484899993986, 9.343359000049531, 2.231115700211376, 3.3966342001222074, 7.054486299864948, 4.5959429000504315, 2.2275356999598444, 3.258609800133854, 3.12636849982664, 2.165680699981749, 4.341372599825263, 7.226951199583709, 7.065196800045669, 4.044645399786532, 3.088398799765855, 4.7316575003787875, 7.483609399758279, 4.870948300231248, 2.4726919000968337]","[4.926606100052595, 3.6587633001618087, 6.830147400032729, 4.260447300039232, 3.137223199941218, 10.600136400200427, 4.031315499916673, 4.760686099994928, 3.8669516001828015, 2.9680703999474645, 3.111328999977559, 4.719254700001329, 3.518559199757874, 2.7448761998675764, 3.438829299993813, 2.815779499709606, 7.273848699871451, 6.954502999782562, 9.343377199955285, 2.2311344002373517, 3.396652899682522, 7.054505399893969, 4.595962500199676, 2.2275543003343046, 3.25862850015983, 3.126389999873936, 2.1656973003409803, 4.341391099616885, 7.2269697999581695, 7.065216499846429, 4.044663899578154, 3.088417099788785, 4.731673600152135, 7.483628099784255, 4.870966000016779, 2.4727135002613068]",681866,001,2023-11-09_22h14.33.699,tutorial7,2022.1.4,60.414017276154865,
0.4,1000,exp,3,0,36,7,292.86436169967055,293.88314519962296,293.86310869967565,None,space,0.34592070057988167,293.86310869967565,None,294.6164620900061,None,295.12860880000517,None,180,295.12860880000517,None,295.12860880000517,None,37,"[4.926587000023574, 3.6587441000156105, 6.830130400136113, 4.260428300127387, 3.1372040999121964, 10.600117300171405, 4.031299399677664, 4.760667099617422, 3.8669320000335574, 2.968038400169462, 3.111312299966812, 4.7192362998612225, 3.518540999852121, 2.744858399964869, 3.4388148998841643, 2.815760999917984, 7.273828099947423, 6.954484899993986, 9.343359000049531, 2.231115700211376, 3.3966342001222074, 7.054486299864948, 4.5959429000504315, 2.2275356999598444, 3.258609800133854, 3.12636849982664, 2.165680699981749, 4.341372599825263, 7.226951199583709, 7.065196800045669, 4.044645399786532, 3.088398799765855, 4.7316575003787875, 7.483609399758279, 4.870948300231248, 2.4726919000968337, 5.0957301002927125]","[4.926606100052595, 3.6587633001618087, 6.830147400032729, 4.260447300039232, 3.137223199941218, 10.600136400200427, 4.031315499916673, 4.760686099994928, 3.8669516001828015, 2.9680703999474645, 3.111328999977559, 4.719254700001329, 3.518559199757874, 2.7448761998675764, 3.438829299993813, 2.815779499709606, 7.273848699871451, 6.954502999782562, 9.343377199955285, 2.2311344002373517, 3.396652899682522, 7.054505399893969, 4.595962500199676, 2.2275543003343046, 3.25862850015983, 3.126389999873936, 2.1656973003409803, 4.341391099616885, 7.2269697999581695, 7.065216499846429, 4.044663899578154, 3.088417099788785, 4.731673600152135, 7.483628099784255, 4.870966000016779, 2.4727135002613068, 5.095749200321734]",681866,001,2023-11-09_22h14.33.699,tutorial7,2022.1.4,60.414017276154865,
0.7,1000,exp,3,1,37,8,300.2240340998396,301.2430253997445,301.1931015998125,None,space,0.27776250056922436,301.1931015998125,None,302.17539188959637,None,302.68894419958815,None,250,302.68894419958815,None,302.68894419958815,None,38,"[4.926587000023574, 3.6587441000156105, 6.830130400136113, 4.260428300127387, 3.1372040999121964, 10.600117300171405, 4.031299399677664, 4.760667099617422, 3.8669320000335574, 2.968038400169462, 3.111312299966812, 4.7192362998612225, 3.518540999852121, 2.744858399964869, 3.4388148998841643, 2.815760999917984, 7.273828099947423, 6.954484899993986, 9.343359000049531, 2.231115700211376, 3.3966342001222074, 7.054486299864948, 4.5959429000504315, 2.2275356999598444, 3.258609800133854, 3.12636849982664, 2.165680699981749, 4.341372599825263, 7.226951199583709, 7.065196800045669, 4.044645399786532, 3.088398799765855, 4.7316575003787875, 7.483609399758279, 4.870948300231248, 2.4726919000968337, 5.0957301002927125, 5.536004399880767]","[4.926606100052595, 3.6587633001618087, 6.830147400032729, 4.260447300039232, 3.137223199941218, 10.600136400200427, 4.031315499916673, 4.760686099994928, 3.8669516001828015, 2.9680703999474645, 3.111328999977559, 4.719254700001329, 3.518559199757874, 2.7448761998675764, 3.438829299993813, 2.815779499709606, 7.273848699871451, 6.954502999782562, 9.343377199955285, 2.2311344002373517, 3.396652899682522, 7.054505399893969, 4.595962500199676, 2.2275543003343046, 3.25862850015983, 3.126389999873936, 2.1656973003409803, 4.341391099616885, 7.2269697999581695, 7.065216499846429, 4.044663899578154, 3.088417099788785, 4.731673600152135, 7.483628099784255, 4.870966000016779, 2.4727135002613068, 5.095749200321734, 5.536023899912834]",681866,001,2023-11-09_22h14.33.699,tutorial7,2022.1.4,60.414017276154865,
0.7,1000,exp,3,2,38,5,308.21728360001,309.252126599662,309.19908709963784,None,space,0.4110318007878959,309.19908709963784,None,310.31780428993517,None,310.831077999901,None,250,310.831077999901,None,310.831077999901,None,39,"[4.926587000023574, 3.6587441000156105, 6.830130400136113, 4.260428300127387, 3.1372040999121964, 10.600117300171405, 4.031299399677664, 4.760667099617422, 3.8669320000335574, 2.968038400169462, 3.111312299966812, 4.7192362998612225, 3.518540999852121, 2.744858399964869, 3.4388148998841643, 2.815760999917984, 7.273828099947423, 6.954484899993986, 9.343359000049531, 2.231115700211376, 3.3966342001222074, 7.054486299864948, 4.5959429000504315, 2.2275356999598444, 3.258609800133854, 3.12636849982664, 2.165680699981749, 4.341372599825263, 7.226951199583709, 7.065196800045669, 4.044645399786532, 3.088398799765855, 4.7316575003787875, 7.483609399758279, 4.870948300231248, 2.4726919000968337, 5.0957301002927125, 5.536004399880767, 4.124007500242442]","[4.926606100052595, 3.6587633001618087, 6.830147400032729, 4.260447300039232, 3.137223199941218, 10.600136400200427, 4.031315499916673, 4.760686099994928, 3.8669516001828015, 2.9680703999474645, 3.111328999977559, 4.719254700001329, 3.518559199757874, 2.7448761998675764, 3.438829299993813, 2.815779499709606, 7.273848699871451, 6.954502999782562, 9.343377199955285, 2.2311344002373517, 3.396652899682522, 7.054505399893969, 4.595962500199676, 2.2275543003343046, 3.25862850015983, 3.126389999873936, 2.1656973003409803, 4.341391099616885, 7.2269697999581695, 7.065216499846429, 4.044663899578154, 3.088417099788785, 4.731673600152135, 7.483628099784255, 4.870966000016779, 2.4727135002613068, 5.095749200321734, 5.536023899912834, 4.12402640003711]",681866,001,2023-11-09_22h14.33.699,tutorial7,2022.1.4,60.414017276154865,
0.7,400,unexp,3,3,39,2,314.9433479998261,315.9459708998911,315.9256473998539,None,space,0.8739084005355835,315.9256473998539,None,317.51095788967797,None,318.0245359996334,None,400,318.0245359996334,None,318.0245359996334,None,40,"[4.926587000023574, 3.6587441000156105, 6.830130400136113, 4.260428300127387, 3.1372040999121964, 10.600117300171405, 4.031299399677664, 4.760667099617422, 3.8669320000335574, 2.968038400169462, 3.111312299966812, 4.7192362998612225, 3.518540999852121, 2.744858399964869, 3.4388148998841643, 2.815760999917984, 7.273828099947423, 6.954484899993986, 9.343359000049531, 2.231115700211376, 3.3966342001222074, 7.054486299864948, 4.5959429000504315, 2.2275356999598444, 3.258609800133854, 3.12636849982664, 2.165680699981749, 4.341372599825263, 7.226951199583709, 7.065196800045669, 4.044645399786532, 3.088398799765855, 4.7316575003787875, 7.483609399758279, 4.870948300231248, 2.4726919000968337, 5.0957301002927125, 5.536004399880767, 4.124007500242442, 4.348896199837327]","[4.926606100052595, 3.6587633001618087, 6.830147400032729, 4.260447300039232, 3.137223199941218, 10.600136400200427, 4.031315499916673, 4.760686099994928, 3.8669516001828015, 2.9680703999474645, 3.111328999977559, 4.719254700001329, 3.518559199757874, 2.7448761998675764, 3.438829299993813, 2.815779499709606, 7.273848699871451, 6.954502999782562, 9.343377199955285, 2.2311344002373517, 3.396652899682522, 7.054505399893969, 4.595962500199676, 2.2275543003343046, 3.25862850015983, 3.126389999873936, 2.1656973003409803, 4.341391099616885, 7.2269697999581695, 7.065216499846429, 4.044663899578154, 3.088417099788785, 4.731673600152135, 7.483628099784255, 4.870966000016779, 2.4727135002613068, 5.095749200321734, 5.536023899912834, 4.12402640003711, 4.3489147000946105]",681866,001,2023-11-09_22h14.33.699,tutorial7,2022.1.4,60.414017276154865,
0.7,1000,exp,3,4,40,11,322.36973929964006,323.37222439981997,323.3524547996931,None,space,0.272178300190717,323.3524547996931,None,324.3546757897828,None,324.86778549989685,None,200,324.86778549989685,None,324.86778549989685,None,41,"[4.926587000023574, 3.6587441000156105, 6.830130400136113, 4.260428300127387, 3.1372040999121964, 10.600117300171405, 4.031299399677664, 4.760667099617422, 3.8669320000335574, 2.968038400169462, 3.111312299966812, 4.7192362998612225, 3.518540999852121, 2.744858399964869, 3.4388148998841643, 2.815760999917984, 7.273828099947423, 6.954484899993986, 9.343359000049531, 2.231115700211376, 3.3966342001222074, 7.054486299864948, 4.5959429000504315, 2.2275356999598444, 3.258609800133854, 3.12636849982664, 2.165680699981749, 4.341372599825263, 7.226951199583709, 7.065196800045669, 4.044645399786532, 3.088398799765855, 4.7316575003787875, 7.483609399758279, 4.870948300231248, 2.4726919000968337, 5.0957301002927125, 5.536004399880767, 4.124007500242442, 4.348896199837327, 2.0052412999793887]","[4.926606100052595, 3.6587633001618087, 6.830147400032729, 4.260447300039232, 3.137223199941218, 10.600136400200427, 4.031315499916673, 4.760686099994928, 3.8669516001828015, 2.9680703999474645, 3.111328999977559, 4.719254700001329, 3.518559199757874, 2.7448761998675764, 3.438829299993813, 2.815779499709606, 7.273848699871451, 6.954502999782562, 9.343377199955285, 2.2311344002373517, 3.396652899682522, 7.054505399893969, 4.595962500199676, 2.2275543003343046, 3.25862850015983, 3.126389999873936, 2.1656973003409803, 4.341391099616885, 7.2269697999581695, 7.065216499846429, 4.044663899578154, 3.088417099788785, 4.731673600152135, 7.483628099784255, 4.870966000016779, 2.4727135002613068, 5.095749200321734, 5.536023899912834, 4.12402640003711, 4.3489147000946105, 2.0052609997801483]",681866,001,2023-11-09_22h14.33.699,tutorial7,2022.1.4,60.414017276154865,
0.1,1000,exp,3,5,41,6,326.8651731000282,327.86554119968787,327.83249629987404,None,space,1.0707122003659606,327.83249629987404,None,329.0144571898971,None,329.49474679958075,None,200,329.49474679958075,None,329.49474679958075,None,42,"[4.926587000023574, 3.6587441000156105, 6.830130400136113, 4.260428300127387, 3.1372040999121964, 10.600117300171405, 4.031299399677664, 4.760667099617422, 3.8669320000335574, 2.968038400169462, 3.111312299966812, 4.7192362998612225, 3.518540999852121, 2.744858399964869, 3.4388148998841643, 2.815760999917984, 7.273828099947423, 6.954484899993986, 9.343359000049531, 2.231115700211376, 3.3966342001222074, 7.054486299864948, 4.5959429000504315, 2.2275356999598444, 3.258609800133854, 3.12636849982664, 2.165680699981749, 4.341372599825263, 7.226951199583709, 7.065196800045669, 4.044645399786532, 3.088398799765855, 4.7316575003787875, 7.483609399758279, 4.870948300231248, 2.4726919000968337, 5.0957301002927125, 5.536004399880767, 4.124007500242442, 4.348896199837327, 2.0052412999793887, 4.714538999833167]","[4.926606100052595, 3.6587633001618087, 6.830147400032729, 4.260447300039232, 3.137223199941218, 10.600136400200427, 4.031315499916673, 4.760686099994928, 3.8669516001828015, 2.9680703999474645, 3.111328999977559, 4.719254700001329, 3.518559199757874, 2.7448761998675764, 3.438829299993813, 2.815779499709606, 7.273848699871451, 6.954502999782562, 9.343377199955285, 2.2311344002373517, 3.396652899682522, 7.054505399893969, 4.595962500199676, 2.2275543003343046, 3.25862850015983, 3.126389999873936, 2.1656973003409803, 4.341391099616885, 7.2269697999581695, 7.065216499846429, 4.044663899578154, 3.088417099788785, 4.731673600152135, 7.483628099784255, 4.870966000016779, 2.4727135002613068, 5.095749200321734, 5.536023899912834, 4.12402640003711, 4.3489147000946105, 2.0052609997801483, 4.714555399958044]",681866,001,2023-11-09_22h14.33.699,tutorial7,2022.1.4,60.414017276154865,
0.1,1000,exp,3,6,42,9,334.22463659988716,335.2267961995676,335.19365509971976,None,space,13.836343900300562,335.19365509971976,None,349.1455457899254,None,349.6611255998723,None,200,349.6611255998723,None,349.6611255998723,None,43,"[4.926587000023574, 3.6587441000156105, 6.830130400136113, 4.260428300127387, 3.1372040999121964, 10.600117300171405, 4.031299399677664, 4.760667099617422, 3.8669320000335574, 2.968038400169462, 3.111312299966812, 4.7192362998612225, 3.518540999852121, 2.744858399964869, 3.4388148998841643, 2.815760999917984, 7.273828099947423, 6.954484899993986, 9.343359000049531, 2.231115700211376, 3.3966342001222074, 7.054486299864948, 4.5959429000504315, 2.2275356999598444, 3.258609800133854, 3.12636849982664, 2.165680699981749, 4.341372599825263, 7.226951199583709, 7.065196800045669, 4.044645399786532, 3.088398799765855, 4.7316575003787875, 7.483609399758279, 4.870948300231248, 2.4726919000968337, 5.0957301002927125, 5.536004399880767, 4.124007500242442, 4.348896199837327, 2.0052412999793887, 4.714538999833167, 3.108002800028771]","[4.926606100052595, 3.6587633001618087, 6.830147400032729, 4.260447300039232, 3.137223199941218, 10.600136400200427, 4.031315499916673, 4.760686099994928, 3.8669516001828015, 2.9680703999474645, 3.111328999977559, 4.719254700001329, 3.518559199757874, 2.7448761998675764, 3.438829299993813, 2.815779499709606, 7.273848699871451, 6.954502999782562, 9.343377199955285, 2.2311344002373517, 3.396652899682522, 7.054505399893969, 4.595962500199676, 2.2275543003343046, 3.25862850015983, 3.126389999873936, 2.1656973003409803, 4.341391099616885, 7.2269697999581695, 7.065216499846429, 4.044663899578154, 3.088417099788785, 4.731673600152135, 7.483628099784255, 4.870966000016779, 2.4727135002613068, 5.095749200321734, 5.536023899912834, 4.12402640003711, 4.3489147000946105, 2.0052609997801483, 4.714555399958044, 3.1080187000334263]",681866,001,2023-11-09_22h14.33.699,tutorial7,2022.1.4,60.414017276154865,
0.1,1000,exp,3,7,43,3,352.7578525999561,353.76040649972856,353.74021139973775,None,space,0.2628445001319051,353.74021139973775,None,354.1104144895915,None,354.6233212999068,None,100,354.6233212999068,None,354.6233212999068,None,44,"[4.926587000023574, 3.6587441000156105, 6.830130400136113, 4.260428300127387, 3.1372040999121964, 10.600117300171405, 4.031299399677664, 4.760667099617422, 3.8669320000335574, 2.968038400169462, 3.111312299966812, 4.7192362998612225, 3.518540999852121, 2.744858399964869, 3.4388148998841643, 2.815760999917984, 7.273828099947423, 6.954484899993986, 9.343359000049531, 2.231115700211376, 3.3966342001222074, 7.054486299864948, 4.5959429000504315, 2.2275356999598444, 3.258609800133854, 3.12636849982664, 2.165680699981749, 4.341372599825263, 7.226951199583709, 7.065196800045669, 4.044645399786532, 3.088398799765855, 4.7316575003787875, 7.483609399758279, 4.870948300231248, 2.4726919000968337, 5.0957301002927125, 5.536004399880767, 4.124007500242442, 4.348896199837327, 2.0052412999793887, 4.714538999833167, 3.108002800028771, 2.555860700085759]","[4.926606100052595, 3.6587633001618087, 6.830147400032729, 4.260447300039232, 3.137223199941218, 10.600136400200427, 4.031315499916673, 4.760686099994928, 3.8669516001828015, 2.9680703999474645, 3.111328999977559, 4.719254700001329, 3.518559199757874, 2.7448761998675764, 3.438829299993813, 2.815779499709606, 7.273848699871451, 6.954502999782562, 9.343377199955285, 2.2311344002373517, 3.396652899682522, 7.054505399893969, 4.595962500199676, 2.2275543003343046, 3.25862850015983, 3.126389999873936, 2.1656973003409803, 4.341391099616885, 7.2269697999581695, 7.065216499846429, 4.044663899578154, 3.088417099788785, 4.731673600152135, 7.483628099784255, 4.870966000016779, 2.4727135002613068, 5.095749200321734, 5.536023899912834, 4.12402640003711, 4.3489147000946105, 2.0052609997801483, 4.714555399958044, 3.1080187000334263, 2.555879299994558]",681866,001,2023-11-09_22h14.33.699,tutorial7,2022.1.4,60.414017276154865,
0.4,1000,exp,3,8,44,10,357.1705109998584,358.1729346998036,358.1529632997699,None,space,1.2177411001175642,358.1529632997699,None,359.7718494897243,None,360.284888099879,None,250,360.284888099879,None,360.284888099879,None,45,"[4.926587000023574, 3.6587441000156105, 6.830130400136113, 4.260428300127387, 3.1372040999121964, 10.600117300171405, 4.031299399677664, 4.760667099617422, 3.8669320000335574, 2.968038400169462, 3.111312299966812, 4.7192362998612225, 3.518540999852121, 2.744858399964869, 3.4388148998841643, 2.815760999917984, 7.273828099947423, 6.954484899993986, 9.343359000049531, 2.231115700211376, 3.3966342001222074, 7.054486299864948, 4.5959429000504315, 2.2275356999598444, 3.258609800133854, 3.12636849982664, 2.165680699981749, 4.341372599825263, 7.226951199583709, 7.065196800045669, 4.044645399786532, 3.088398799765855, 4.7316575003787875, 7.483609399758279, 4.870948300231248, 2.4726919000968337, 5.0957301002927125, 5.536004399880767, 4.124007500242442, 4.348896199837327, 2.0052412999793887, 4.714538999833167, 3.108002800028771, 2.555860700085759, 2.015165999997407]","[4.926606100052595, 3.6587633001618087, 6.830147400032729, 4.260447300039232, 3.137223199941218, 10.600136400200427, 4.031315499916673, 4.760686099994928, 3.8669516001828015, 2.9680703999474645, 3.111328999977559, 4.719254700001329, 3.518559199757874, 2.7448761998675764, 3.438829299993813, 2.815779499709606, 7.273848699871451, 6.954502999782562, 9.343377199955285, 2.2311344002373517, 3.396652899682522, 7.054505399893969, 4.595962500199676, 2.2275543003343046, 3.25862850015983, 3.126389999873936, 2.1656973003409803, 4.341391099616885, 7.2269697999581695, 7.065216499846429, 4.044663899578154, 3.088417099788785, 4.731673600152135, 7.483628099784255, 4.870966000016779, 2.4727135002613068, 5.095749200321734, 5.536023899912834, 4.12402640003711, 4.3489147000946105, 2.0052609997801483, 4.714555399958044, 3.1080187000334263, 2.555879299994558, 2.0151851000264287]",681866,001,2023-11-09_22h14.33.699,tutorial7,2022.1.4,60.414017276154865,
0.1,400,unexp,3,9,45,0,362.28240999998525,363.2848846996203,363.26463109999895,None,space,0.37203160021454096,363.26463109999895,None,363.76787418960595,None,364.28056929958984,None,300,364.28056929958984,None,364.28056929958984,None,46,"[4.926587000023574, 3.6587441000156105, 6.830130400136113, 4.260428300127387, 3.1372040999121964, 10.600117300171405, 4.031299399677664, 4.760667099617422, 3.8669320000335574, 2.968038400169462, 3.111312299966812, 4.7192362998612225, 3.518540999852121, 2.744858399964869, 3.4388148998841643, 2.815760999917984, 7.273828099947423, 6.954484899993986, 9.343359000049531, 2.231115700211376, 3.3966342001222074, 7.054486299864948, 4.5959429000504315, 2.2275356999598444, 3.258609800133854, 3.12636849982664, 2.165680699981749, 4.341372599825263, 7.226951199583709, 7.065196800045669, 4.044645399786532, 3.088398799765855, 4.7316575003787875, 7.483609399758279, 4.870948300231248, 2.4726919000968337, 5.0957301002927125, 5.536004399880767, 4.124007500242442, 4.348896199837327, 2.0052412999793887, 4.714538999833167, 3.108002800028771, 2.555860700085759, 2.015165999997407, 2.219392200000584]","[4.926606100052595, 3.6587633001618087, 6.830147400032729, 4.260447300039232, 3.137223199941218, 10.600136400200427, 4.031315499916673, 4.760686099994928, 3.8669516001828015, 2.9680703999474645, 3.111328999977559, 4.719254700001329, 3.518559199757874, 2.7448761998675764, 3.438829299993813, 2.815779499709606, 7.273848699871451, 6.954502999782562, 9.343377199955285, 2.2311344002373517, 3.396652899682522, 7.054505399893969, 4.595962500199676, 2.2275543003343046, 3.25862850015983, 3.126389999873936, 2.1656973003409803, 4.341391099616885, 7.2269697999581695, 7.065216499846429, 4.044663899578154, 3.088417099788785, 4.731673600152135, 7.483628099784255, 4.870966000016779, 2.4727135002613068, 5.095749200321734, 5.536023899912834, 4.12402640003711, 4.3489147000946105, 2.0052609997801483, 4.714555399958044, 3.1080187000334263, 2.555879299994558, 2.0151851000264287, 2.219410799909383]",681866,001,2023-11-09_22h14.33.699,tutorial7,2022.1.4,60.414017276154865,
0.4,400,unexp,3,10,46,1,366.49483639979735,367.4980487995781,367.4775113998912,None,space,0.7701663002371788,367.4775113998912,None,368.66389748961666,None,369.17591919982806,None,350,369.17591919982806,None,369.17591919982806,None,47,"[4.926587000023574, 3.6587441000156105, 6.830130400136113, 4.260428300127387, 3.1372040999121964, 10.600117300171405, 4.031299399677664, 4.760667099617422, 3.8669320000335574, 2.968038400169462, 3.111312299966812, 4.7192362998612225, 3.518540999852121, 2.744858399964869, 3.4388148998841643, 2.815760999917984, 7.273828099947423, 6.954484899993986, 9.343359000049531, 2.231115700211376, 3.3966342001222074, 7.054486299864948, 4.5959429000504315, 2.2275356999598444, 3.258609800133854, 3.12636849982664, 2.165680699981749, 4.341372599825263, 7.226951199583709, 7.065196800045669, 4.044645399786532, 3.088398799765855, 4.7316575003787875, 7.483609399758279, 4.870948300231248, 2.4726919000968337, 5.0957301002927125, 5.536004399880767, 4.124007500242442, 4.348896199837327, 2.0052412999793887, 4.714538999833167, 3.108002800028771, 2.555860700085759, 2.015165999997407, 2.219392200000584, 3.0906156999990344]","[4.926606100052595, 3.6587633001618087, 6.830147400032729, 4.260447300039232, 3.137223199941218, 10.600136400200427, 4.031315499916673, 4.760686099994928, 3.8669516001828015, 2.9680703999474645, 3.111328999977559, 4.719254700001329, 3.518559199757874, 2.7448761998675764, 3.438829299993813, 2.815779499709606, 7.273848699871451, 6.954502999782562, 9.343377199955285, 2.2311344002373517, 3.396652899682522, 7.054505399893969, 4.595962500199676, 2.2275543003343046, 3.25862850015983, 3.126389999873936, 2.1656973003409803, 4.341391099616885, 7.2269697999581695, 7.065216499846429, 4.044663899578154, 3.088417099788785, 4.731673600152135, 7.483628099784255, 4.870966000016779, 2.4727135002613068, 5.095749200321734, 5.536023899912834, 4.12402640003711, 4.3489147000946105, 2.0052609997801483, 4.714555399958044, 3.1080187000334263, 2.555879299994558, 2.0151851000264287, 2.219410799909383, 3.0906350002624094]",681866,001,2023-11-09_22h14.33.699,tutorial7,2022.1.4,60.414017276154865,
0.4,1000,exp,3,11,47,4,372.2563837999478,373.27632799977437,373.2253815997392,None,space,0.23891410045325756,373.2253815997392,None,373.89196438989603,None,374.40550229977816,None,250,374.40550229977816,None,374.40550229977816,None,48,"[4.926587000023574, 3.6587441000156105, 6.830130400136113, 4.260428300127387, 3.1372040999121964, 10.600117300171405, 4.031299399677664, 4.760667099617422, 3.8669320000335574, 2.968038400169462, 3.111312299966812, 4.7192362998612225, 3.518540999852121, 2.744858399964869, 3.4388148998841643, 2.815760999917984, 7.273828099947423, 6.954484899993986, 9.343359000049531, 2.231115700211376, 3.3966342001222074, 7.054486299864948, 4.5959429000504315, 2.2275356999598444, 3.258609800133854, 3.12636849982664, 2.165680699981749, 4.341372599825263, 7.226951199583709, 7.065196800045669, 4.044645399786532, 3.088398799765855, 4.7316575003787875, 7.483609399758279, 4.870948300231248, 2.4726919000968337, 5.0957301002927125, 5.536004399880767, 4.124007500242442, 4.348896199837327, 2.0052412999793887, 4.714538999833167, 3.108002800028771, 2.555860700085759, 2.015165999997407, 2.219392200000584, 3.0906156999990344, 2.6299490998499095]","[4.926606100052595, 3.6587633001618087, 6.830147400032729, 4.260447300039232, 3.137223199941218, 10.600136400200427, 4.031315499916673, 4.760686099994928, 3.8669516001828015, 2.9680703999474645, 3.111328999977559, 4.719254700001329, 3.518559199757874, 2.7448761998675764, 3.438829299993813, 2.815779499709606, 7.273848699871451, 6.954502999782562, 9.343377199955285, 2.2311344002373517, 3.396652899682522, 7.054505399893969, 4.595962500199676, 2.2275543003343046, 3.25862850015983, 3.126389999873936, 2.1656973003409803, 4.341391099616885, 7.2269697999581695, 7.065216499846429, 4.044663899578154, 3.088417099788785, 4.731673600152135, 7.483628099784255, 4.870966000016779, 2.4727135002613068, 5.095749200321734, 5.536023899912834, 4.12402640003711, 4.3489147000946105, 2.0052609997801483, 4.714555399958044, 3.1080187000334263, 2.555879299994558, 2.0151851000264287, 2.219410799909383, 3.0906350002624094, 2.6299670999869704]",681866,001,2023-11-09_22h14.33.699,tutorial7,2022.1.4,60.414017276154865,
0.7,1000,exp,4,0,48,8,377.01872329972684,378.0376458996907,377.98802549997345,None,space,0.776368800085038,377.98802549997345,None,379.4709809897002,None,379.9831612999551,None,200,379.9831612999551,None,379.9831612999551,None,49,"[4.926587000023574, 3.6587441000156105, 6.830130400136113, 4.260428300127387, 3.1372040999121964, 10.600117300171405, 4.031299399677664, 4.760667099617422, 3.8669320000335574, 2.968038400169462, 3.111312299966812, 4.7192362998612225, 3.518540999852121, 2.744858399964869, 3.4388148998841643, 2.815760999917984, 7.273828099947423, 6.954484899993986, 9.343359000049531, 2.231115700211376, 3.3966342001222074, 7.054486299864948, 4.5959429000504315, 2.2275356999598444, 3.258609800133854, 3.12636849982664, 2.165680699981749, 4.341372599825263, 7.226951199583709, 7.065196800045669, 4.044645399786532, 3.088398799765855, 4.7316575003787875, 7.483609399758279, 4.870948300231248, 2.4726919000968337, 5.0957301002927125, 5.536004399880767, 4.124007500242442, 4.348896199837327, 2.0052412999793887, 4.714538999833167, 3.108002800028771, 2.555860700085759, 2.015165999997407, 2.219392200000584, 3.0906156999990344, 2.6299490998499095, 7.045681799761951]","[4.926606100052595, 3.6587633001618087, 6.830147400032729, 4.260447300039232, 3.137223199941218, 10.600136400200427, 4.031315499916673, 4.760686099994928, 3.8669516001828015, 2.9680703999474645, 3.111328999977559, 4.719254700001329, 3.518559199757874, 2.7448761998675764, 3.438829299993813, 2.815779499709606, 7.273848699871451, 6.954502999782562, 9.343377199955285, 2.2311344002373517, 3.396652899682522, 7.054505399893969, 4.595962500199676, 2.2275543003343046, 3.25862850015983, 3.126389999873936, 2.1656973003409803, 4.341391099616885, 7.2269697999581695, 7.065216499846429, 4.044663899578154, 3.088417099788785, 4.731673600152135, 7.483628099784255, 4.870966000016779, 2.4727135002613068, 5.095749200321734, 5.536023899912834, 4.12402640003711, 4.3489147000946105, 2.0052609997801483, 4.714555399958044, 3.1080187000334263, 2.555879299994558, 2.0151851000264287, 2.219410799909383, 3.0906350002624094, 2.6299670999869704, 7.045701200142503]",681866,001,2023-11-09_22h14.33.699,tutorial7,2022.1.4,60.414017276154865,
0.1,1000,exp,4,1,49,6,387.0256744995713,388.0282367998734,388.00849369959906,None,space,0.5950961005873978,388.00849369959906,None,388.71128928982654,None,389.2238201997243,None,200,389.2238201997243,None,389.2238201997243,None,50,"[4.926587000023574, 3.6587441000156105, 6.830130400136113, 4.260428300127387, 3.1372040999121964, 10.600117300171405, 4.031299399677664, 4.760667099617422, 3.8669320000335574, 2.968038400169462, 3.111312299966812, 4.7192362998612225, 3.518540999852121, 2.744858399964869, 3.4388148998841643, 2.815760999917984, 7.273828099947423, 6.954484899993986, 9.343359000049531, 2.231115700211376, 3.3966342001222074, 7.054486299864948, 4.5959429000504315, 2.2275356999598444, 3.258609800133854, 3.12636849982664, 2.165680699981749, 4.341372599825263, 7.226951199583709, 7.065196800045669, 4.044645399786532, 3.088398799765855, 4.7316575003787875, 7.483609399758279, 4.870948300231248, 2.4726919000968337, 5.0957301002927125, 5.536004399880767, 4.124007500242442, 4.348896199837327, 2.0052412999793887, 4.714538999833167, 3.108002800028771, 2.555860700085759, 2.015165999997407, 2.219392200000584, 3.0906156999990344, 2.6299490998499095, 7.045681799761951, 2.662515100091696]","[4.926606100052595, 3.6587633001618087, 6.830147400032729, 4.260447300039232, 3.137223199941218, 10.600136400200427, 4.031315499916673, 4.760686099994928, 3.8669516001828015, 2.9680703999474645, 3.111328999977559, 4.719254700001329, 3.518559199757874, 2.7448761998675764, 3.438829299993813, 2.815779499709606, 7.273848699871451, 6.954502999782562, 9.343377199955285, 2.2311344002373517, 3.396652899682522, 7.054505399893969, 4.595962500199676, 2.2275543003343046, 3.25862850015983, 3.126389999873936, 2.1656973003409803, 4.341391099616885, 7.2269697999581695, 7.065216499846429, 4.044663899578154, 3.088417099788785, 4.731673600152135, 7.483628099784255, 4.870966000016779, 2.4727135002613068, 5.095749200321734, 5.536023899912834, 4.12402640003711, 4.3489147000946105, 2.0052609997801483, 4.714555399958044, 3.1080187000334263, 2.555879299994558, 2.0151851000264287, 2.219410799909383, 3.0906350002624094, 2.6299670999869704, 7.045701200142503, 2.66253129998222]",681866,001,2023-11-09_22h14.33.699,tutorial7,2022.1.4,60.414017276154865,
0.7,1000,exp,4,2,50,5,391.87073259986937,392.8710859999992,392.83799759997055,None,space,0.5603205002844334,392.83799759997055,None,394.1054591899272,None,394.6183573999442,None,350,394.6183573999442,None,394.6183573999442,None,51,"[4.926587000023574, 3.6587441000156105, 6.830130400136113, 4.260428300127387, 3.1372040999121964, 10.600117300171405, 4.031299399677664, 4.760667099617422, 3.8669320000335574, 2.968038400169462, 3.111312299966812, 4.7192362998612225, 3.518540999852121, 2.744858399964869, 3.4388148998841643, 2.815760999917984, 7.273828099947423, 6.954484899993986, 9.343359000049531, 2.231115700211376, 3.3966342001222074, 7.054486299864948, 4.5959429000504315, 2.2275356999598444, 3.258609800133854, 3.12636849982664, 2.165680699981749, 4.341372599825263, 7.226951199583709, 7.065196800045669, 4.044645399786532, 3.088398799765855, 4.7316575003787875, 7.483609399758279, 4.870948300231248, 2.4726919000968337, 5.0957301002927125, 5.536004399880767, 4.124007500242442, 4.348896199837327, 2.0052412999793887, 4.714538999833167, 3.108002800028771, 2.555860700085759, 2.015165999997407, 2.219392200000584, 3.0906156999990344, 2.6299490998499095, 7.045681799761951, 2.662515100091696, 2.4325270000845194]","[4.926606100052595, 3.6587633001618087, 6.830147400032729, 4.260447300039232, 3.137223199941218, 10.600136400200427, 4.031315499916673, 4.760686099994928, 3.8669516001828015, 2.9680703999474645, 3.111328999977559, 4.719254700001329, 3.518559199757874, 2.7448761998675764, 3.438829299993813, 2.815779499709606, 7.273848699871451, 6.954502999782562, 9.343377199955285, 2.2311344002373517, 3.396652899682522, 7.054505399893969, 4.595962500199676, 2.2275543003343046, 3.25862850015983, 3.126389999873936, 2.1656973003409803, 4.341391099616885, 7.2269697999581695, 7.065216499846429, 4.044663899578154, 3.088417099788785, 4.731673600152135, 7.483628099784255, 4.870966000016779, 2.4727135002613068, 5.095749200321734, 5.536023899912834, 4.12402640003711, 4.3489147000946105, 2.0052609997801483, 4.714555399958044, 3.1080187000334263, 2.555879299994558, 2.0151851000264287, 2.219410799909383, 3.0906350002624094, 2.6299670999869704, 7.045701200142503, 2.66253129998222, 2.432545500341803]",681866,001,2023-11-09_22h14.33.699,tutorial7,2022.1.4,60.414017276154865,
0.1,400,unexp,4,3,51,0,397.0501856999472,398.05259699979797,398.03251979965717,None,space,0.6908019003458321,398.03251979965717,None,398.83705958998763,None,399.3475627996959,None,200,399.3475627996959,None,399.3475627996959,None,52,"[4.926587000023574, 3.6587441000156105, 6.830130400136113, 4.260428300127387, 3.1372040999121964, 10.600117300171405, 4.031299399677664, 4.760667099617422, 3.8669320000335574, 2.968038400169462, 3.111312299966812, 4.7192362998612225, 3.518540999852121, 2.744858399964869, 3.4388148998841643, 2.815760999917984, 7.273828099947423, 6.954484899993986, 9.343359000049531, 2.231115700211376, 3.3966342001222074, 7.054486299864948, 4.5959429000504315, 2.2275356999598444, 3.258609800133854, 3.12636849982664, 2.165680699981749, 4.341372599825263, 7.226951199583709, 7.065196800045669, 4.044645399786532, 3.088398799765855, 4.7316575003787875, 7.483609399758279, 4.870948300231248, 2.4726919000968337, 5.0957301002927125, 5.536004399880767, 4.124007500242442, 4.348896199837327, 2.0052412999793887, 4.714538999833167, 3.108002800028771, 2.555860700085759, 2.015165999997407, 2.219392200000584, 3.0906156999990344, 2.6299490998499095, 7.045681799761951, 2.662515100091696, 2.4325270000845194, 2.5459342999383807]","[4.926606100052595, 3.6587633001618087, 6.830147400032729, 4.260447300039232, 3.137223199941218, 10.600136400200427, 4.031315499916673, 4.760686099994928, 3.8669516001828015, 2.9680703999474645, 3.111328999977559, 4.719254700001329, 3.518559199757874, 2.7448761998675764, 3.438829299993813, 2.815779499709606, 7.273848699871451, 6.954502999782562, 9.343377199955285, 2.2311344002373517, 3.396652899682522, 7.054505399893969, 4.595962500199676, 2.2275543003343046, 3.25862850015983, 3.126389999873936, 2.1656973003409803, 4.341391099616885, 7.2269697999581695, 7.065216499846429, 4.044663899578154, 3.088417099788785, 4.731673600152135, 7.483628099784255, 4.870966000016779, 2.4727135002613068, 5.095749200321734, 5.536023899912834, 4.12402640003711, 4.3489147000946105, 2.0052609997801483, 4.714555399958044, 3.1080187000334263, 2.555879299994558, 2.0151851000264287, 2.219410799909383, 3.0906350002624094, 2.6299670999869704, 7.045701200142503, 2.66253129998222, 2.432545500341803, 2.5459523000754416]",681866,001,2023-11-09_22h14.33.699,tutorial7,2022.1.4,60.414017276154865,
0.7,1000,exp,4,4,52,11,401.89456309983507,402.89505549985915,402.8618783997372,None,space,0.6618099003098905,402.8618783997372,None,404.2295036897529,None,404.7256552996114,None,450,404.7256552996114,None,404.7256552996114,None,53,"[4.926587000023574, 3.6587441000156105, 6.830130400136113, 4.260428300127387, 3.1372040999121964, 10.600117300171405, 4.031299399677664, 4.760667099617422, 3.8669320000335574, 2.968038400169462, 3.111312299966812, 4.7192362998612225, 3.518540999852121, 2.744858399964869, 3.4388148998841643, 2.815760999917984, 7.273828099947423, 6.954484899993986, 9.343359000049531, 2.231115700211376, 3.3966342001222074, 7.054486299864948, 4.5959429000504315, 2.2275356999598444, 3.258609800133854, 3.12636849982664, 2.165680699981749, 4.341372599825263, 7.226951199583709, 7.065196800045669, 4.044645399786532, 3.088398799765855, 4.7316575003787875, 7.483609399758279, 4.870948300231248, 2.4726919000968337, 5.0957301002927125, 5.536004399880767, 4.124007500242442, 4.348896199837327, 2.0052412999793887, 4.714538999833167, 3.108002800028771, 2.555860700085759, 2.015165999997407, 2.219392200000584, 3.0906156999990344, 2.6299490998499095, 7.045681799761951, 2.662515100091696, 2.4325270000845194, 2.5459342999383807, 4.008846600074321]","[4.926606100052595, 3.6587633001618087, 6.830147400032729, 4.260447300039232, 3.137223199941218, 10.600136400200427, 4.031315499916673, 4.760686099994928, 3.8669516001828015, 2.9680703999474645, 3.111328999977559, 4.719254700001329, 3.518559199757874, 2.7448761998675764, 3.438829299993813, 2.815779499709606, 7.273848699871451, 6.954502999782562, 9.343377199955285, 2.2311344002373517, 3.396652899682522, 7.054505399893969, 4.595962500199676, 2.2275543003343046, 3.25862850015983, 3.126389999873936, 2.1656973003409803, 4.341391099616885, 7.2269697999581695, 7.065216499846429, 4.044663899578154, 3.088417099788785, 4.731673600152135, 7.483628099784255, 4.870966000016779, 2.4727135002613068, 5.095749200321734, 5.536023899912834, 4.12402640003711, 4.3489147000946105, 2.0052609997801483, 4.714555399958044, 3.1080187000334263, 2.555879299994558, 2.0151851000264287, 2.219410799909383, 3.0906350002624094, 2.6299670999869704, 7.045701200142503, 2.66253129998222, 2.432545500341803, 2.5459523000754416, 4.008865000214428]",681866,001,2023-11-09_22h14.33.699,tutorial7,2022.1.4,60.414017276154865,
0.1,1000,exp,4,5,53,3,408.7390127996914,409.7420031996444,409.7212985996157,None,space,0.7384028001688421,409.7212985996157,None,410.5755488900002,None,411.08656679978594,None,150,411.08656679978594,None,411.08656679978594,None,54,"[4.926587000023574, 3.6587441000156105, 6.830130400136113, 4.260428300127387, 3.1372040999121964, 10.600117300171405, 4.031299399677664, 4.760667099617422, 3.8669320000335574, 2.968038400169462, 3.111312299966812, 4.7192362998612225, 3.518540999852121, 2.744858399964869, 3.4388148998841643, 2.815760999917984, 7.273828099947423, 6.954484899993986, 9.343359000049531, 2.231115700211376, 3.3966342001222074, 7.054486299864948, 4.5959429000504315, 2.2275356999598444, 3.258609800133854, 3.12636849982664, 2.165680699981749, 4.341372599825263, 7.226951199583709, 7.065196800045669, 4.044645399786532, 3.088398799765855, 4.7316575003787875, 7.483609399758279, 4.870948300231248, 2.4726919000968337, 5.0957301002927125, 5.536004399880767, 4.124007500242442, 4.348896199837327, 2.0052412999793887, 4.714538999833167, 3.108002800028771, 2.555860700085759, 2.015165999997407, 2.219392200000584, 3.0906156999990344, 2.6299490998499095, 7.045681799761951, 2.662515100091696, 2.4325270000845194, 2.5459342999383807, 4.008846600074321, 3.7738463999703526]","[4.926606100052595, 3.6587633001618087, 6.830147400032729, 4.260447300039232, 3.137223199941218, 10.600136400200427, 4.031315499916673, 4.760686099994928, 3.8669516001828015, 2.9680703999474645, 3.111328999977559, 4.719254700001329, 3.518559199757874, 2.7448761998675764, 3.438829299993813, 2.815779499709606, 7.273848699871451, 6.954502999782562, 9.343377199955285, 2.2311344002373517, 3.396652899682522, 7.054505399893969, 4.595962500199676, 2.2275543003343046, 3.25862850015983, 3.126389999873936, 2.1656973003409803, 4.341391099616885, 7.2269697999581695, 7.065216499846429, 4.044663899578154, 3.088417099788785, 4.731673600152135, 7.483628099784255, 4.870966000016779, 2.4727135002613068, 5.095749200321734, 5.536023899912834, 4.12402640003711, 4.3489147000946105, 2.0052609997801483, 4.714555399958044, 3.1080187000334263, 2.555879299994558, 2.0151851000264287, 2.219410799909383, 3.0906350002624094, 2.6299670999869704, 7.045701200142503, 2.66253129998222, 2.432545500341803, 2.5459523000754416, 4.008865000214428, 3.773864900227636]",681866,001,2023-11-09_22h14.33.699,tutorial7,2022.1.4,60.414017276154865,
0.4,1000,exp,4,6,54,7,414.8499671998434,415.8525650999509,415.83222479978576,None,space,0.2740802001208067,415.83222479978576,None,416.5356153896544,None,417.03155689965934,None,230,417.03155689965934,None,417.03155689965934,None,55,"[4.926587000023574, 3.6587441000156105, 6.830130400136113, 4.260428300127387, 3.1372040999121964, 10.600117300171405, 4.031299399677664, 4.760667099617422, 3.8669320000335574, 2.968038400169462, 3.111312299966812, 4.7192362998612225, 3.518540999852121, 2.744858399964869, 3.4388148998841643, 2.815760999917984, 7.273828099947423, 6.954484899993986, 9.343359000049531, 2.231115700211376, 3.3966342001222074, 7.054486299864948, 4.5959429000504315, 2.2275356999598444, 3.258609800133854, 3.12636849982664, 2.165680699981749, 4.341372599825263, 7.226951199583709, 7.065196800045669, 4.044645399786532, 3.088398799765855, 4.7316575003787875, 7.483609399758279, 4.870948300231248, 2.4726919000968337, 5.0957301002927125, 5.536004399880767, 4.124007500242442, 4.348896199837327, 2.0052412999793887, 4.714538999833167, 3.108002800028771, 2.555860700085759, 2.015165999997407, 2.219392200000584, 3.0906156999990344, 2.6299490998499095, 7.045681799761951, 2.662515100091696, 2.4325270000845194, 2.5459342999383807, 4.008846600074321, 3.7738463999703526, 4.066451599821448]","[4.926606100052595, 3.6587633001618087, 6.830147400032729, 4.260447300039232, 3.137223199941218, 10.600136400200427, 4.031315499916673, 4.760686099994928, 3.8669516001828015, 2.9680703999474645, 3.111328999977559, 4.719254700001329, 3.518559199757874, 2.7448761998675764, 3.438829299993813, 2.815779499709606, 7.273848699871451, 6.954502999782562, 9.343377199955285, 2.2311344002373517, 3.396652899682522, 7.054505399893969, 4.595962500199676, 2.2275543003343046, 3.25862850015983, 3.126389999873936, 2.1656973003409803, 4.341391099616885, 7.2269697999581695, 7.065216499846429, 4.044663899578154, 3.088417099788785, 4.731673600152135, 7.483628099784255, 4.870966000016779, 2.4727135002613068, 5.095749200321734, 5.536023899912834, 4.12402640003711, 4.3489147000946105, 2.0052609997801483, 4.714555399958044, 3.1080187000334263, 2.555879299994558, 2.0151851000264287, 2.219410799909383, 3.0906350002624094, 2.6299670999869704, 7.045701200142503, 2.66253129998222, 2.432545500341803, 2.5459523000754416, 4.008865000214428, 3.773864900227636, 4.06647069985047]",681866,001,2023-11-09_22h14.33.699,tutorial7,2022.1.4,60.414017276154865,
0.4,400,unexp,4,7,55,1,421.0937464996241,422.1129480996169,422.06318709999323,None,space,0.29141150042414665,422.06318709999323,None,422.7628510896582,None,423.2753465999849,None,400,423.2753465999849,None,423.2753465999849,None,56,"[4.926587000023574, 3.6587441000156105, 6.830130400136113, 4.260428300127387, 3.1372040999121964, 10.600117300171405, 4.031299399677664, 4.760667099617422, 3.8669320000335574, 2.968038400169462, 3.111312299966812, 4.7192362998612225, 3.518540999852121, 2.744858399964869, 3.4388148998841643, 2.815760999917984, 7.273828099947423, 6.954484899993986, 9.343359000049531, 2.231115700211376, 3.3966342001222074, 7.054486299864948, 4.5959429000504315, 2.2275356999598444, 3.258609800133854, 3.12636849982664, 2.165680699981749, 4.341372599825263, 7.226951199583709, 7.065196800045669, 4.044645399786532, 3.088398799765855, 4.7316575003787875, 7.483609399758279, 4.870948300231248, 2.4726919000968337, 5.0957301002927125, 5.536004399880767, 4.124007500242442, 4.348896199837327, 2.0052412999793887, 4.714538999833167, 3.108002800028771, 2.555860700085759, 2.015165999997407, 2.219392200000584, 3.0906156999990344, 2.6299490998499095, 7.045681799761951, 2.662515100091696, 2.4325270000845194, 2.5459342999383807, 4.008846600074321, 3.7738463999703526, 4.066451599821448, 3.002580199856311]","[4.926606100052595, 3.6587633001618087, 6.830147400032729, 4.260447300039232, 3.137223199941218, 10.600136400200427, 4.031315499916673, 4.760686099994928, 3.8669516001828015, 2.9680703999474645, 3.111328999977559, 4.719254700001329, 3.518559199757874, 2.7448761998675764, 3.438829299993813, 2.815779499709606, 7.273848699871451, 6.954502999782562, 9.343377199955285, 2.2311344002373517, 3.396652899682522, 7.054505399893969, 4.595962500199676, 2.2275543003343046, 3.25862850015983, 3.126389999873936, 2.1656973003409803, 4.341391099616885, 7.2269697999581695, 7.065216499846429, 4.044663899578154, 3.088417099788785, 4.731673600152135, 7.483628099784255, 4.870966000016779, 2.4727135002613068, 5.095749200321734, 5.536023899912834, 4.12402640003711, 4.3489147000946105, 2.0052609997801483, 4.714555399958044, 3.1080187000334263, 2.555879299994558, 2.0151851000264287, 2.219410799909383, 3.0906350002624094, 2.6299670999869704, 7.045701200142503, 2.66253129998222, 2.432545500341803, 2.5459523000754416, 4.008865000214428, 3.773864900227636, 4.06647069985047, 3.0025989999994636]",681866,001,2023-11-09_22h14.33.699,tutorial7,2022.1.4,60.414017276154865,
0.4,1000,exp,4,8,56,4,426.27239699987695,427.2747959997505,427.25453449971974,None,space,0.28985890047624707,427.25453449971974,None,427.97464418965393,None,428.47088729962707,None,200,428.47088729962707,None,428.47088729962707,None,57,"[4.926587000023574, 3.6587441000156105, 6.830130400136113, 4.260428300127387, 3.1372040999121964, 10.600117300171405, 4.031299399677664, 4.760667099617422, 3.8669320000335574, 2.968038400169462, 3.111312299966812, 4.7192362998612225, 3.518540999852121, 2.744858399964869, 3.4388148998841643, 2.815760999917984, 7.273828099947423, 6.954484899993986, 9.343359000049531, 2.231115700211376, 3.3966342001222074, 7.054486299864948, 4.5959429000504315, 2.2275356999598444, 3.258609800133854, 3.12636849982664, 2.165680699981749, 4.341372599825263, 7.226951199583709, 7.065196800045669, 4.044645399786532, 3.088398799765855, 4.7316575003787875, 7.483609399758279, 4.870948300231248, 2.4726919000968337, 5.0957301002927125, 5.536004399880767, 4.124007500242442, 4.348896199837327, 2.0052412999793887, 4.714538999833167, 3.108002800028771, 2.555860700085759, 2.015165999997407, 2.219392200000584, 3.0906156999990344, 2.6299490998499095, 7.045681799761951, 2.662515100091696, 2.4325270000845194, 2.5459342999383807, 4.008846600074321, 3.7738463999703526, 4.066451599821448, 3.002580199856311, 3.3306732000783086]","[4.926606100052595, 3.6587633001618087, 6.830147400032729, 4.260447300039232, 3.137223199941218, 10.600136400200427, 4.031315499916673, 4.760686099994928, 3.8669516001828015, 2.9680703999474645, 3.111328999977559, 4.719254700001329, 3.518559199757874, 2.7448761998675764, 3.438829299993813, 2.815779499709606, 7.273848699871451, 6.954502999782562, 9.343377199955285, 2.2311344002373517, 3.396652899682522, 7.054505399893969, 4.595962500199676, 2.2275543003343046, 3.25862850015983, 3.126389999873936, 2.1656973003409803, 4.341391099616885, 7.2269697999581695, 7.065216499846429, 4.044663899578154, 3.088417099788785, 4.731673600152135, 7.483628099784255, 4.870966000016779, 2.4727135002613068, 5.095749200321734, 5.536023899912834, 4.12402640003711, 4.3489147000946105, 2.0052609997801483, 4.714555399958044, 3.1080187000334263, 2.555879299994558, 2.0151851000264287, 2.219410799909383, 3.0906350002624094, 2.6299670999869704, 7.045701200142503, 2.66253129998222, 2.432545500341803, 2.5459523000754416, 4.008865000214428, 3.773864900227636, 4.06647069985047, 3.0025989999994636, 3.3306913999840617]",681866,001,2023-11-09_22h14.33.699,tutorial7,2022.1.4,60.414017276154865,
0.4,1000,exp,4,9,57,10,431.80085319979116,432.8033723998815,432.7831023996696,None,space,0.40938680060207844,432.7831023996696,None,433.60454938975164,None,434.11532330000773,None,100,434.11532330000773,None,434.11532330000773,None,58,"[4.926587000023574, 3.6587441000156105, 6.830130400136113, 4.260428300127387, 3.1372040999121964, 10.600117300171405, 4.031299399677664, 4.760667099617422, 3.8669320000335574, 2.968038400169462, 3.111312299966812, 4.7192362998612225, 3.518540999852121, 2.744858399964869, 3.4388148998841643, 2.815760999917984, 7.273828099947423, 6.954484899993986, 9.343359000049531, 2.231115700211376, 3.3966342001222074, 7.054486299864948, 4.5959429000504315, 2.2275356999598444, 3.258609800133854, 3.12636849982664, 2.165680699981749, 4.341372599825263, 7.226951199583709, 7.065196800045669, 4.044645399786532, 3.088398799765855, 4.7316575003787875, 7.483609399758279, 4.870948300231248, 2.4726919000968337, 5.0957301002927125, 5.536004399880767, 4.124007500242442, 4.348896199837327, 2.0052412999793887, 4.714538999833167, 3.108002800028771, 2.555860700085759, 2.015165999997407, 2.219392200000584, 3.0906156999990344, 2.6299490998499095, 7.045681799761951, 2.662515100091696, 2.4325270000845194, 2.5459342999383807, 4.008846600074321, 3.7738463999703526, 4.066451599821448, 3.002580199856311, 3.3306732000783086, 3.3999538999050856]","[4.926606100052595, 3.6587633001618087, 6.830147400032729, 4.260447300039232, 3.137223199941218, 10.600136400200427, 4.031315499916673, 4.760686099994928, 3.8669516001828015, 2.9680703999474645, 3.111328999977559, 4.719254700001329, 3.518559199757874, 2.7448761998675764, 3.438829299993813, 2.815779499709606, 7.273848699871451, 6.954502999782562, 9.343377199955285, 2.2311344002373517, 3.396652899682522, 7.054505399893969, 4.595962500199676, 2.2275543003343046, 3.25862850015983, 3.126389999873936, 2.1656973003409803, 4.341391099616885, 7.2269697999581695, 7.065216499846429, 4.044663899578154, 3.088417099788785, 4.731673600152135, 7.483628099784255, 4.870966000016779, 2.4727135002613068, 5.095749200321734, 5.536023899912834, 4.12402640003711, 4.3489147000946105, 2.0052609997801483, 4.714555399958044, 3.1080187000334263, 2.555879299994558, 2.0151851000264287, 2.219410799909383, 3.0906350002624094, 2.6299670999869704, 7.045701200142503, 2.66253129998222, 2.432545500341803, 2.5459523000754416, 4.008865000214428, 3.773864900227636, 4.06647069985047, 3.0025989999994636, 3.3306913999840617, 3.3999739000573754]",681866,001,2023-11-09_22h14.33.699,tutorial7,2022.1.4,60.414017276154865,
0.7,400,unexp,4,10,58,2,437.51221949979663,438.51489909971133,438.4943891996518,None,space,0.36028140038251877,438.4943891996518,None,439.56413948996925,None,440.07674399996176,None,230,440.07674399996176,None,440.07674399996176,None,59,"[4.926587000023574, 3.6587441000156105, 6.830130400136113, 4.260428300127387, 3.1372040999121964, 10.600117300171405, 4.031299399677664, 4.760667099617422, 3.8669320000335574, 2.968038400169462, 3.111312299966812, 4.7192362998612225, 3.518540999852121, 2.744858399964869, 3.4388148998841643, 2.815760999917984, 7.273828099947423, 6.954484899993986, 9.343359000049531, 2.231115700211376, 3.3966342001222074, 7.054486299864948, 4.5959429000504315, 2.2275356999598444, 3.258609800133854, 3.12636849982664, 2.165680699981749, 4.341372599825263, 7.226951199583709, 7.065196800045669, 4.044645399786532, 3.088398799765855, 4.7316575003787875, 7.483609399758279, 4.870948300231248, 2.4726919000968337, 5.0957301002927125, 5.536004399880767, 4.124007500242442, 4.348896199837327, 2.0052412999793887, 4.714538999833167, 3.108002800028771, 2.555860700085759, 2.015165999997407, 2.219392200000584, 3.0906156999990344, 2.6299490998499095, 7.045681799761951, 2.662515100091696, 2.4325270000845194, 2.5459342999383807, 4.008846600074321, 3.7738463999703526, 4.066451599821448, 3.002580199856311, 3.3306732000783086, 3.3999538999050856, 1.840759300161153]","[4.926606100052595, 3.6587633001618087, 6.830147400032729, 4.260447300039232, 3.137223199941218, 10.600136400200427, 4.031315499916673, 4.760686099994928, 3.8669516001828015, 2.9680703999474645, 3.111328999977559, 4.719254700001329, 3.518559199757874, 2.7448761998675764, 3.438829299993813, 2.815779499709606, 7.273848699871451, 6.954502999782562, 9.343377199955285, 2.2311344002373517, 3.396652899682522, 7.054505399893969, 4.595962500199676, 2.2275543003343046, 3.25862850015983, 3.126389999873936, 2.1656973003409803, 4.341391099616885, 7.2269697999581695, 7.065216499846429, 4.044663899578154, 3.088417099788785, 4.731673600152135, 7.483628099784255, 4.870966000016779, 2.4727135002613068, 5.095749200321734, 5.536023899912834, 4.12402640003711, 4.3489147000946105, 2.0052609997801483, 4.714555399958044, 3.1080187000334263, 2.555879299994558, 2.0151851000264287, 2.219410799909383, 3.0906350002624094, 2.6299670999869704, 7.045701200142503, 2.66253129998222, 2.432545500341803, 2.5459523000754416, 4.008865000214428, 3.773864900227636, 4.06647069985047, 3.0025989999994636, 3.3306913999840617, 3.3999739000573754, 1.8407821003347635]",681866,001,2023-11-09_22h14.33.699,tutorial7,2022.1.4,60.414017276154865,
0.1,1000,exp,4,11,59,9,441.9078160999343,442.91042539989576,442.89025189960375,None,space,0.32289790036156774,442.89025189960375,None,443.3437282898929,None,443.855738400016,None,200,443.855738400016,None,443.855738400016,None,60,"[4.926587000023574, 3.6587441000156105, 6.830130400136113, 4.260428300127387, 3.1372040999121964, 10.600117300171405, 4.031299399677664, 4.760667099617422, 3.8669320000335574, 2.968038400169462, 3.111312299966812, 4.7192362998612225, 3.518540999852121, 2.744858399964869, 3.4388148998841643, 2.815760999917984, 7.273828099947423, 6.954484899993986, 9.343359000049531, 2.231115700211376, 3.3966342001222074, 7.054486299864948, 4.5959429000504315, 2.2275356999598444, 3.258609800133854, 3.12636849982664, 2.165680699981749, 4.341372599825263, 7.226951199583709, 7.065196800045669, 4.044645399786532, 3.088398799765855, 4.7316575003787875, 7.483609399758279, 4.870948300231248, 2.4726919000968337, 5.0957301002927125, 5.536004399880767, 4.124007500242442, 4.348896199837327, 2.0052412999793887, 4.714538999833167, 3.108002800028771, 2.555860700085759, 2.015165999997407, 2.219392200000584, 3.0906156999990344, 2.6299490998499095, 7.045681799761951, 2.662515100091696, 2.4325270000845194, 2.5459342999383807, 4.008846600074321, 3.7738463999703526, 4.066451599821448, 3.002580199856311, 3.3306732000783086, 3.3999538999050856, 1.840759300161153, 3.794377100188285]","[4.926606100052595, 3.6587633001618087, 6.830147400032729, 4.260447300039232, 3.137223199941218, 10.600136400200427, 4.031315499916673, 4.760686099994928, 3.8669516001828015, 2.9680703999474645, 3.111328999977559, 4.719254700001329, 3.518559199757874, 2.7448761998675764, 3.438829299993813, 2.815779499709606, 7.273848699871451, 6.954502999782562, 9.343377199955285, 2.2311344002373517, 3.396652899682522, 7.054505399893969, 4.595962500199676, 2.2275543003343046, 3.25862850015983, 3.126389999873936, 2.1656973003409803, 4.341391099616885, 7.2269697999581695, 7.065216499846429, 4.044663899578154, 3.088417099788785, 4.731673600152135, 7.483628099784255, 4.870966000016779, 2.4727135002613068, 5.095749200321734, 5.536023899912834, 4.12402640003711, 4.3489147000946105, 2.0052609997801483, 4.714555399958044, 3.1080187000334263, 2.555879299994558, 2.0151851000264287, 2.219410799909383, 3.0906350002624094, 2.6299670999869704, 7.045701200142503, 2.66253129998222, 2.432545500341803, 2.5459523000754416, 4.008865000214428, 3.773864900227636, 4.06647069985047, 3.0025989999994636, 3.3306913999840617, 3.3999739000573754, 1.8407821003347635, 3.79439610010013]",681866,001,2023-11-09_22h14.33.699,tutorial7,2022.1.4,60.414017276154865,
0.7,1000,exp,5,0,60,5,447.6358464998193,448.65498259989545,448.63561479980126,None,space,0.2918129004538059,448.63561479980126,None,449.6370424897876,None,450.1330444999039,None,500,450.1330444999039,None,450.1330444999039,None,61,"[4.926587000023574, 3.6587441000156105, 6.830130400136113, 4.260428300127387, 3.1372040999121964, 10.600117300171405, 4.031299399677664, 4.760667099617422, 3.8669320000335574, 2.968038400169462, 3.111312299966812, 4.7192362998612225, 3.518540999852121, 2.744858399964869, 3.4388148998841643, 2.815760999917984, 7.273828099947423, 6.954484899993986, 9.343359000049531, 2.231115700211376, 3.3966342001222074, 7.054486299864948, 4.5959429000504315, 2.2275356999598444, 3.258609800133854, 3.12636849982664, 2.165680699981749, 4.341372599825263, 7.226951199583709, 7.065196800045669, 4.044645399786532, 3.088398799765855, 4.7316575003787875, 7.483609399758279, 4.870948300231248, 2.4726919000968337, 5.0957301002927125, 5.536004399880767, 4.124007500242442, 4.348896199837327, 2.0052412999793887, 4.714538999833167, 3.108002800028771, 2.555860700085759, 2.015165999997407, 2.219392200000584, 3.0906156999990344, 2.6299490998499095, 7.045681799761951, 2.662515100091696, 2.4325270000845194, 2.5459342999383807, 4.008846600074321, 3.7738463999703526, 4.066451599821448, 3.002580199856311, 3.3306732000783086, 3.3999538999050856, 1.840759300161153, 3.794377100188285, 1.9922718000598252]","[4.926606100052595, 3.6587633001618087, 6.830147400032729, 4.260447300039232, 3.137223199941218, 10.600136400200427, 4.031315499916673, 4.760686099994928, 3.8669516001828015, 2.9680703999474645, 3.111328999977559, 4.719254700001329, 3.518559199757874, 2.7448761998675764, 3.438829299993813, 2.815779499709606, 7.273848699871451, 6.954502999782562, 9.343377199955285, 2.2311344002373517, 3.396652899682522, 7.054505399893969, 4.595962500199676, 2.2275543003343046, 3.25862850015983, 3.126389999873936, 2.1656973003409803, 4.341391099616885, 7.2269697999581695, 7.065216499846429, 4.044663899578154, 3.088417099788785, 4.731673600152135, 7.483628099784255, 4.870966000016779, 2.4727135002613068, 5.095749200321734, 5.536023899912834, 4.12402640003711, 4.3489147000946105, 2.0052609997801483, 4.714555399958044, 3.1080187000334263, 2.555879299994558, 2.0151851000264287, 2.219410799909383, 3.0906350002624094, 2.6299670999869704, 7.045701200142503, 2.66253129998222, 2.432545500341803, 2.5459523000754416, 4.008865000214428, 3.773864900227636, 4.06647069985047, 3.0025989999994636, 3.3306913999840617, 3.3999739000573754, 1.8407821003347635, 3.79439610010013, 1.9922884004190564]",681866,001,2023-11-09_22h14.33.699,tutorial7,2022.1.4,60.414017276154865,
0.1,1000,exp,5,1,61,6,452.117487099953,453.11674169963226,453.10007939999923,None,space,0.3287930004298687,453.10007939999923,None,453.53466998967343,None,454.04650349961594,None,300,454.04650349961594,None,454.04650349961594,None,62,"[4.926587000023574, 3.6587441000156105, 6.830130400136113, 4.260428300127387, 3.1372040999121964, 10.600117300171405, 4.031299399677664, 4.760667099617422, 3.8669320000335574, 2.968038400169462, 3.111312299966812, 4.7192362998612225, 3.518540999852121, 2.744858399964869, 3.4388148998841643, 2.815760999917984, 7.273828099947423, 6.954484899993986, 9.343359000049531, 2.231115700211376, 3.3966342001222074, 7.054486299864948, 4.5959429000504315, 2.2275356999598444, 3.258609800133854, 3.12636849982664, 2.165680699981749, 4.341372599825263, 7.226951199583709, 7.065196800045669, 4.044645399786532, 3.088398799765855, 4.7316575003787875, 7.483609399758279, 4.870948300231248, 2.4726919000968337, 5.0957301002927125, 5.536004399880767, 4.124007500242442, 4.348896199837327, 2.0052412999793887, 4.714538999833167, 3.108002800028771, 2.555860700085759, 2.015165999997407, 2.219392200000584, 3.0906156999990344, 2.6299490998499095, 7.045681799761951, 2.662515100091696, 2.4325270000845194, 2.5459342999383807, 4.008846600074321, 3.7738463999703526, 4.066451599821448, 3.002580199856311, 3.3306732000783086, 3.3999538999050856, 1.840759300161153, 3.794377100188285, 1.9922718000598252, 2.120668400079012]","[4.926606100052595, 3.6587633001618087, 6.830147400032729, 4.260447300039232, 3.137223199941218, 10.600136400200427, 4.031315499916673, 4.760686099994928, 3.8669516001828015, 2.9680703999474645, 3.111328999977559, 4.719254700001329, 3.518559199757874, 2.7448761998675764, 3.438829299993813, 2.815779499709606, 7.273848699871451, 6.954502999782562, 9.343377199955285, 2.2311344002373517, 3.396652899682522, 7.054505399893969, 4.595962500199676, 2.2275543003343046, 3.25862850015983, 3.126389999873936, 2.1656973003409803, 4.341391099616885, 7.2269697999581695, 7.065216499846429, 4.044663899578154, 3.088417099788785, 4.731673600152135, 7.483628099784255, 4.870966000016779, 2.4727135002613068, 5.095749200321734, 5.536023899912834, 4.12402640003711, 4.3489147000946105, 2.0052609997801483, 4.714555399958044, 3.1080187000334263, 2.555879299994558, 2.0151851000264287, 2.219410799909383, 3.0906350002624094, 2.6299670999869704, 7.045701200142503, 2.66253129998222, 2.432545500341803, 2.5459523000754416, 4.008865000214428, 3.773864900227636, 4.06647069985047, 3.0025989999994636, 3.3306913999840617, 3.3999739000573754, 1.8407821003347635, 3.79439610010013, 1.9922884004190564, 2.120687599759549]",681866,001,2023-11-09_22h14.33.699,tutorial7,2022.1.4,60.414017276154865,
0.4,1000,exp,5,2,62,10,456.1611865996383,457.16387109970674,457.14343349961564,None,space,0.29023420065641403,457.14343349961564,None,457.8633009898011,None,458.3766377000138,None,200,458.3766377000138,None,458.3766377000138,None,63,"[4.926587000023574, 3.6587441000156105, 6.830130400136113, 4.260428300127387, 3.1372040999121964, 10.600117300171405, 4.031299399677664, 4.760667099617422, 3.8669320000335574, 2.968038400169462, 3.111312299966812, 4.7192362998612225, 3.518540999852121, 2.744858399964869, 3.4388148998841643, 2.815760999917984, 7.273828099947423, 6.954484899993986, 9.343359000049531, 2.231115700211376, 3.3966342001222074, 7.054486299864948, 4.5959429000504315, 2.2275356999598444, 3.258609800133854, 3.12636849982664, 2.165680699981749, 4.341372599825263, 7.226951199583709, 7.065196800045669, 4.044645399786532, 3.088398799765855, 4.7316575003787875, 7.483609399758279, 4.870948300231248, 2.4726919000968337, 5.0957301002927125, 5.536004399880767, 4.124007500242442, 4.348896199837327, 2.0052412999793887, 4.714538999833167, 3.108002800028771, 2.555860700085759, 2.015165999997407, 2.219392200000584, 3.0906156999990344, 2.6299490998499095, 7.045681799761951, 2.662515100091696, 2.4325270000845194, 2.5459342999383807, 4.008846600074321, 3.7738463999703526, 4.066451599821448, 3.002580199856311, 3.3306732000783086, 3.3999538999050856, 1.840759300161153, 3.794377100188285, 1.9922718000598252, 2.120668400079012, 2.2059805002063513]","[4.926606100052595, 3.6587633001618087, 6.830147400032729, 4.260447300039232, 3.137223199941218, 10.600136400200427, 4.031315499916673, 4.760686099994928, 3.8669516001828015, 2.9680703999474645, 3.111328999977559, 4.719254700001329, 3.518559199757874, 2.7448761998675764, 3.438829299993813, 2.815779499709606, 7.273848699871451, 6.954502999782562, 9.343377199955285, 2.2311344002373517, 3.396652899682522, 7.054505399893969, 4.595962500199676, 2.2275543003343046, 3.25862850015983, 3.126389999873936, 2.1656973003409803, 4.341391099616885, 7.2269697999581695, 7.065216499846429, 4.044663899578154, 3.088417099788785, 4.731673600152135, 7.483628099784255, 4.870966000016779, 2.4727135002613068, 5.095749200321734, 5.536023899912834, 4.12402640003711, 4.3489147000946105, 2.0052609997801483, 4.714555399958044, 3.1080187000334263, 2.555879299994558, 2.0151851000264287, 2.219410799909383, 3.0906350002624094, 2.6299670999869704, 7.045701200142503, 2.66253129998222, 2.432545500341803, 2.5459523000754416, 4.008865000214428, 3.773864900227636, 4.06647069985047, 3.0025989999994636, 3.3306913999840617, 3.3999739000573754, 1.8407821003347635, 3.79439610010013, 1.9922884004190564, 2.120687599759549, 2.205999200232327]",681866,001,2023-11-09_22h14.33.699,tutorial7,2022.1.4,60.414017276154865,
