pos,corr_resp,trials.thisRepN,trials.thisTrialN,trials.thisN,trials.thisIndex,trials_2.thisRepN,trials_2.thisTrialN,trials_2.thisN,trials_2.thisIndex,fixation.started,line1.started,line2.started,line3.started,line4.started,fixation.stopped,probe.started,key_resp.started,key_resp.keys,key_resp.corr,key_resp.rt,key_resp.duration,participant,session,date,expName,psychopyVersion,frameRate,
-50,x,0,0,0,0,,,,,55.15923509997083,55.41693710000254,55.41693710000254,55.41693710000254,55.41693710000254,56.18342549999943,56.416282600024715,56.416282600024715,x,1,1.5386779999826103,None,400trials,001,2023-10-17_19h33.01.535,sequentialearning,2023.1.3,60.10995313077554,
150,v,0,1,1,1,,,,,58.04813289997401,59.03044800000498,59.03044800000498,59.03044800000498,59.03044800000498,59.096944299992174,60.045974700013176,60.045974700013176,v,1,1.6718784000258893,None,400trials,001,2023-10-17_19h33.01.535,sequentialearning,2023.1.3,60.10995313077554,
50,c,0,2,2,2,,,,,61.77779189997818,62.77787340001669,62.77787340001669,62.77787340001669,62.77787340001669,62.81044899998233,63.792879200016614,63.792879200016614,c,1,0.4260760000324808,None,400trials,001,2023-10-17_19h33.01.535,sequentialearning,2023.1.3,60.10995313077554,
-150,z,0,3,3,3,,,,,64.25893349997932,65.25833129999228,65.25833129999228,65.25833129999228,65.25833129999228,65.29161969997222,66.27401850000024,66.27401850000024,z,1,0.7143312999978662,None,400trials,001,2023-10-17_19h33.01.535,sequentialearning,2023.1.3,60.10995313077554,
-50,x,1,0,4,0,,,,,67.03950660000555,68.03923910000594,68.03923910000594,68.03923910000594,68.03923910000594,68.07183309999527,69.03771649999544,69.03771649999544,x,1,0.5830659000203013,None,400trials,001,2023-10-17_19h33.01.535,sequentialearning,2023.1.3,60.10995313077554,
150,v,1,1,5,1,,,,,69.67032309999922,70.6696162999724,70.6696162999724,70.6696162999724,70.6696162999724,70.70291829999769,71.66897050000262,71.66897050000262,v,1,0.2896042999927886,None,400trials,001,2023-10-17_19h33.01.535,sequentialearning,2023.1.3,60.10995313077554,
50,c,1,2,6,2,,,,,72.0013477000175,73.00064089999069,73.00064089999069,73.00064089999069,73.00064089999069,73.03418389998842,74.00029039999936,74.00029039999936,c,1,0.3212836000020616,None,400trials,001,2023-10-17_19h33.01.535,sequentialearning,2023.1.3,60.10995313077554,
-150,z,1,3,7,3,,,,,74.3658905000193,75.36543449998135,75.36543449998135,75.36543449998135,75.36543449998135,75.39879980002297,76.36430239997571,76.36430239997571,z,1,0.3070914000272751,None,400trials,001,2023-10-17_19h33.01.535,sequentialearning,2023.1.3,60.10995313077554,
-50,x,2,0,8,0,,,,,76.73008710000431,77.72966830001678,77.72966830001678,77.72966830001678,77.72966830001678,77.76299710001331,78.74584099999629,78.74584099999629,x,1,0.3308457000530325,None,400trials,001,2023-10-17_19h33.01.535,sequentialearning,2023.1.3,60.10995313077554,
150,v,2,1,9,1,,,,,79.11141419998603,80.110776800022,80.110776800022,80.110776800022,80.110776800022,80.14413969998714,81.12648769997759,81.12648769997759,v,1,0.10817849996965379,None,400trials,001,2023-10-17_19h33.01.535,sequentialearning,2023.1.3,60.10995313077554,
50,c,2,2,10,2,,,,,81.29255489999196,82.29202039999655,82.29202039999655,82.29202039999655,82.29202039999655,82.32527430000482,83.30800590000581,83.30800590000581,c,1,0.2981512999976985,None,400trials,001,2023-10-17_19h33.01.535,sequentialearning,2023.1.3,60.10995313077554,
-150,z,2,3,11,3,,,,,83.64085740002338,84.64010090002557,84.64010090002557,84.64010090002557,84.64010090002557,84.67307100002654,85.64485989999957,85.64485989999957,z,1,0.24893599998904392,None,400trials,001,2023-10-17_19h33.01.535,sequentialearning,2023.1.3,60.10995313077554,
-50,x,3,0,12,0,,,,,85.93879340001149,86.93762749998132,86.93762749998132,86.93762749998132,86.93762749998132,86.97091849998105,87.93693000002531,87.93693000002531,x,1,0.3108426999533549,None,400trials,001,2023-10-17_19h33.01.535,sequentialearning,2023.1.3,60.10995313077554,
150,v,3,1,13,1,,,,,88.30256649997318,89.30209329997888,89.30209329997888,89.30209329997888,89.30209329997888,89.3353057000204,90.30126149998978,90.30126149998978,v,1,0.48304510000161827,None,400trials,001,2023-10-17_19h33.01.535,sequentialearning,2023.1.3,60.10995313077554,
50,c,3,2,14,2,,,,,90.83375619997969,91.83302540000295,91.83302540000295,91.83302540000295,91.83302540000295,91.86659039999358,92.83253860002151,92.83253860002151,c,1,0.4471874000155367,None,400trials,001,2023-10-17_19h33.01.535,sequentialearning,2023.1.3,60.10995313077554,
-150,z,3,3,15,3,,,,,93.29994569998235,94.29889640002511,94.29889640002511,94.29889640002511,94.29889640002511,94.31578509998508,95.29872070002602,95.29872070002602,z,1,0.645358000008855,None,400trials,001,2023-10-17_19h33.01.535,sequentialearning,2023.1.3,60.10995313077554,
-50,x,4,0,16,0,,,,,95.96395280002616,96.96290889999364,96.96290889999364,96.96290889999364,96.96290889999364,96.96290889999364,97.99360310001066,97.99360310001066,x,1,0.15823370002908632,None,400trials,001,2023-10-17_19h33.01.535,sequentialearning,2023.1.3,60.10995313077554,
150,v,4,1,17,1,,,,,98.18016789999092,99.19279180001467,99.19279180001467,99.19279180001467,99.19279180001467,99.19279180001467,100.20873170002596,100.20873170002596,v,1,0.473198699997738,None,400trials,001,2023-10-17_19h33.01.535,sequentialearning,2023.1.3,60.10995313077554,
50,c,4,2,18,2,,,,,100.72775349998847,101.72504859999754,101.72504859999754,101.72504859999754,101.72504859999754,101.74174929998117,102.75584860000527,102.75584860000527,x,0,0.4774832999682985,None,400trials,001,2023-10-17_19h33.01.535,sequentialearning,2023.1.3,60.10995313077554,
-150,z,4,3,19,3,,,,,103.27540929999668,104.28781389998039,104.28781389998039,104.28781389998039,104.28781389998039,104.28781389998039,105.30379330000142,105.30379330000142,z,1,0.43876249995082617,None,400trials,001,2023-10-17_19h33.01.535,sequentialearning,2023.1.3,60.10995313077554,
-50,x,5,0,20,0,,,,,105.78938480000943,106.80258040002082,106.80258040002082,106.80258040002082,106.80258040002082,106.80258040002082,107.80135530000553,107.80135530000553,x,1,0.6995776999974623,None,400trials,001,2023-10-17_19h33.01.535,sequentialearning,2023.1.3,60.10995313077554,
150,v,5,1,21,1,,,,,108.53383059997577,109.53346579999197,109.53346579999197,109.53346579999197,109.53346579999197,109.5663620000123,110.53237759997137,110.53237759997137,v,1,0.3131101000471972,None,400trials,001,2023-10-17_19h33.01.535,sequentialearning,2023.1.3,60.10995313077554,
50,c,5,2,22,2,,,,,110.88494419999188,111.89798000000883,111.89798000000883,111.89798000000883,111.89798000000883,111.89798000000883,112.89671350002754,112.89671350002754,c,1,0.3897137999883853,None,400trials,001,2023-10-17_19h33.01.535,sequentialearning,2023.1.3,60.10995313077554,
-150,z,5,3,23,3,,,,,113.32914410001831,114.32878610002808,114.32878610002808,114.32878610002808,114.32878610002808,114.36210799997207,115.3280082999845,115.3280082999845,z,1,0.43594719999236986,None,400trials,001,2023-10-17_19h33.01.535,sequentialearning,2023.1.3,60.10995313077554,
-50,x,6,0,24,0,,,,,115.8268888000166,116.82624169997871,116.82624169997871,116.82624169997871,116.82624169997871,116.85976690001553,117.82552030001534,117.82552030001534,x,1,0.3362525000120513,None,400trials,001,2023-10-17_19h33.01.535,sequentialearning,2023.1.3,60.10995313077554,
150,v,6,1,25,1,,,,,118.22452129999874,119.22412019997137,119.22412019997137,119.22412019997137,119.22412019997137,119.25728979997803,120.22285830002511,120.22285830002511,v,1,0.3260090000112541,None,400trials,001,2023-10-17_19h33.01.535,sequentialearning,2023.1.3,60.10995313077554,
50,c,6,2,26,2,,,,,120.58904310001526,121.58860229997663,121.58860229997663,121.58860229997663,121.58860229997663,121.62162809999427,122.5871490999707,122.5871490999707,c,1,0.4569956999621354,None,400trials,001,2023-10-17_19h33.01.535,sequentialearning,2023.1.3,60.10995313077554,
-150,z,6,3,27,3,,,,,123.08686789998319,124.08672249998199,124.08672249998199,124.08672249998199,124.08672249998199,124.11983999999939,125.08535649999976,125.08535649999976,z,1,0.18165520002366975,None,400trials,001,2023-10-17_19h33.01.535,sequentialearning,2023.1.3,60.10995313077554,
-50,x,7,0,28,0,,,,,125.31787590001477,126.31756850000238,126.31756850000238,126.31756850000238,126.31756850000238,126.35080239997478,127.33321720000822,127.33321720000822,x,1,0.5334624000242911,None,400trials,001,2023-10-17_19h33.01.535,sequentialearning,2023.1.3,60.10995313077554,
150,v,7,1,29,1,,,,,127.89883070002543,128.89832819998264,128.89832819998264,128.89832819998264,128.89832819998264,128.93164949998027,129.89795720000984,129.89795720000984,v,1,0.38376130000688136,None,400trials,001,2023-10-17_19h33.01.535,sequentialearning,2023.1.3,60.10995313077554,
50,c,7,2,30,2,,,,,130.32988169998862,131.32960499997716,131.32960499997716,131.32960499997716,131.32960499997716,131.3632833000156,132.3292915999773,132.3292915999773,c,1,0.6500205000047572,None,400trials,001,2023-10-17_19h33.01.535,sequentialearning,2023.1.3,60.10995313077554,
-150,z,7,3,31,3,,,,,133.02819019998424,134.02694409998367,134.02694409998367,134.02694409998367,134.02694409998367,134.06012470001588,135.02634149999358,135.02634149999358,z,1,0.3620329999830574,None,400trials,001,2023-10-17_19h33.01.535,sequentialearning,2023.1.3,60.10995313077554,
-50,x,8,0,32,0,,,,,135.42527680000057,136.42479279998224,136.42479279998224,136.42479279998224,136.42479279998224,136.45791070000269,137.42433309997432,137.42433309997432,x,1,0.5854012999916449,None,400trials,001,2023-10-17_19h33.01.535,sequentialearning,2023.1.3,60.10995313077554,
150,v,8,1,33,1,,,,,138.0562969999737,139.0554033999797,139.0554033999797,139.0554033999797,139.0554033999797,139.08871550002368,140.05460819997825,140.05460819997825,v,1,0.4305521999485791,None,400trials,001,2023-10-17_19h33.01.535,sequentialearning,2023.1.3,60.10995313077554,
50,c,8,2,34,2,,,,,140.52101309999125,141.51996549998876,141.51996549998876,141.51996549998876,141.51996549998876,141.55324959999416,142.51911140000448,142.51911140000448,c,1,0.30861609999556094,None,400trials,001,2023-10-17_19h33.01.535,sequentialearning,2023.1.3,60.10995313077554,
-150,z,8,3,35,3,,,,,142.88480010000058,143.88430370000424,143.88430370000424,143.88430370000424,143.88430370000424,143.91777399997227,144.8837593999924,144.8837593999924,z,1,0.30452349997358397,None,400trials,001,2023-10-17_19h33.01.535,sequentialearning,2023.1.3,60.10995313077554,
-50,x,9,0,36,0,,,,,145.24939219997032,146.24976490001427,146.24976490001427,146.24976490001427,146.24976490001427,146.28221979999216,147.24817789997905,147.24817789997905,x,1,0.6469052999746054,None,400trials,001,2023-10-17_19h33.01.535,sequentialearning,2023.1.3,60.10995313077554,
150,v,9,1,37,1,,,,,147.94676229998004,148.9466342999949,148.9466342999949,148.9466342999949,148.9466342999949,148.97993440000573,149.96238310000626,149.96238310000626,v,1,0.5029403999797069,None,400trials,001,2023-10-17_19h33.01.535,sequentialearning,2023.1.3,60.10995313077554,
50,c,9,2,38,2,,,,,150.514548200008,151.52742649998982,151.52742649998982,151.52742649998982,151.52742649998982,151.52742649998982,152.5431923000142,152.5431923000142,c,1,0.3281777999945916,None,400trials,001,2023-10-17_19h33.01.535,sequentialearning,2023.1.3,60.10995313077554,
-150,z,9,3,39,3,,,,,152.90920950000873,153.9085412999848,153.9085412999848,153.9085412999848,153.9085412999848,153.94168709998485,154.9074845999712,154.9074845999712,z,1,0.461809300002642,None,400trials,001,2023-10-17_19h33.01.535,sequentialearning,2023.1.3,60.10995313077554,
-50,x,10,0,40,0,,,,,155.4066888000234,156.40635070001008,156.40635070001008,156.40635070001008,156.40635070001008,156.43938719999278,157.4054192000185,157.4054192000185,x,1,0.4448592000408098,None,400trials,001,2023-10-17_19h33.01.535,sequentialearning,2023.1.3,60.10995313077554,
150,v,10,1,41,1,,,,,157.90409199998248,158.90358679997735,158.90358679997735,158.90358679997735,158.90358679997735,158.93696740001906,159.90302929998143,159.90302929998143,v,1,0.4739978999714367,None,400trials,001,2023-10-17_19h33.01.535,sequentialearning,2023.1.3,60.10995313077554,
50,c,10,2,42,2,,,,,160.42184750002343,161.43489600002067,161.43489600002067,161.43489600002067,161.43489600002067,161.43489600002067,162.43419020000147,162.43419020000147,c,1,0.3038720000186004,None,400trials,001,2023-10-17_19h33.01.535,sequentialearning,2023.1.3,60.10995313077554,
-150,z,10,3,43,3,,,,,162.79961679998087,163.79943800001638,163.79943800001638,163.79943800001638,163.79943800001638,163.83225460001267,164.79770739999367,164.79770739999367,z,1,0.24596980004571378,None,400trials,001,2023-10-17_19h33.01.535,sequentialearning,2023.1.3,60.10995313077554,
-50,x,11,0,44,0,,,,,165.0973380000214,166.0969278999837,166.0969278999837,166.0969278999837,166.0969278999837,166.13015189999714,167.09619070001645,167.09619070001645,x,1,0.38283139996929094,None,400trials,001,2023-10-17_19h33.01.535,sequentialearning,2023.1.3,60.10995313077554,
150,v,11,1,45,1,,,,,167.52905050001573,168.52878160000546,168.52878160000546,168.52878160000546,168.52878160000546,168.5612526999903,169.5269576999708,169.5269576999708,v,1,0.5977701999945566,None,400trials,001,2023-10-17_19h33.01.535,sequentialearning,2023.1.3,60.10995313077554,
50,c,11,2,46,2,,,,,170.15941299998667,171.1438960999949,171.1438960999949,171.1438960999949,171.1438960999949,171.1615235999925,172.15775130002294,172.15775130002294,c,1,0.209080999949947,None,400trials,001,2023-10-17_19h33.01.535,sequentialearning,2023.1.3,60.10995313077554,
-150,z,11,3,47,3,,,,,172.42373979999684,173.4401203999878,173.4401203999878,173.4401203999878,173.4401203999878,173.4733372000046,174.43998770002509,174.43998770002509,z,1,0.3138188000302762,None,400trials,001,2023-10-17_19h33.01.535,sequentialearning,2023.1.3,60.10995313077554,
-50,x,12,0,48,0,,,,,174.80490049999207,175.8046408999944,175.8046408999944,175.8046408999944,175.8046408999944,175.8382316000061,176.80340019997675,176.80340019997675,c,0,0.4157713999738917,None,400trials,001,2023-10-17_19h33.01.535,sequentialearning,2023.1.3,60.10995313077554,
150,v,12,1,49,1,,,,,177.26928629999747,178.26902040001005,178.26902040001005,178.26902040001005,178.26902040001005,178.30243079998763,179.26811699999962,179.26811699999962,v,1,0.6297206000308506,None,400trials,001,2023-10-17_19h33.01.535,sequentialearning,2023.1.3,60.10995313077554,
50,c,12,2,50,2,,,,,179.93354539998109,180.93306970002595,180.93306970002595,180.93306970002595,180.93306970002595,180.96622910001315,181.9323000999866,181.9323000999866,c,1,0.5105619000387378,None,400trials,001,2023-10-17_19h33.01.535,sequentialearning,2023.1.3,60.10995313077554,
-150,z,12,3,51,3,,,,,182.49776340002427,183.4975133999833,183.4975133999833,183.4975133999833,183.4975133999833,183.53088380000554,184.49684059998253,184.49684059998253,z,1,0.5563282999792136,None,400trials,001,2023-10-17_19h33.01.535,sequentialearning,2023.1.3,60.10995313077554,
-50,x,13,0,52,0,,,,,185.09554619999835,186.09604829997988,186.09604829997988,186.09604829997988,186.09604829997988,186.12870310002472,187.09458159998758,187.09458159998758,x,1,0.6276963999844156,None,400trials,001,2023-10-17_19h33.01.535,sequentialearning,2023.1.3,60.10995313077554,
150,v,13,1,53,1,,,,,187.7595094999997,188.75955880002584,188.75955880002584,188.75955880002584,188.75955880002584,188.79252279998036,189.77494239999214,189.77494239999214,v,1,0.39844230003654957,None,400trials,001,2023-10-17_19h33.01.535,sequentialearning,2023.1.3,60.10995313077554,
50,c,13,2,54,2,,,,,190.20730349997757,191.20697140000993,191.20697140000993,191.20697140000993,191.20697140000993,191.24048580002273,192.2060270999791,192.2060270999791,c,1,0.35155540000414476,None,400trials,001,2023-10-17_19h33.01.535,sequentialearning,2023.1.3,60.10995313077554,
-150,z,13,3,55,3,,,,,192.60485699999845,193.60463650000747,193.60463650000747,193.60463650000747,193.60463650000747,193.6380009999848,194.60351500002434,194.60351500002434,z,1,0.4582670000381768,None,400trials,001,2023-10-17_19h33.01.535,sequentialearning,2023.1.3,60.10995313077554,
-50,x,14,0,56,0,,,,,195.10332330001984,196.10218980000354,196.10218980000354,196.10218980000354,196.10218980000354,196.13566590001574,197.10164700000314,197.10164700000314,z,0,0.4616202000179328,None,400trials,001,2023-10-17_19h33.01.535,sequentialearning,2023.1.3,60.10995313077554,
150,v,14,1,57,1,,,,,197.60049440001603,198.59980510000605,198.59980510000605,198.59980510000605,198.59980510000605,198.63335439999355,199.59929739998188,199.59929739998188,v,1,0.4724131000111811,None,400trials,001,2023-10-17_19h33.01.535,sequentialearning,2023.1.3,60.10995313077554,
50,c,14,2,58,2,,,,,200.13126310001826,201.1310115000233,201.1310115000233,201.1310115000233,201.1310115000233,201.16432169999462,202.14657739998074,202.14657739998074,c,1,0.5471682999632321,None,400trials,001,2023-10-17_19h33.01.535,sequentialearning,2023.1.3,60.10995313077554,
-150,z,14,3,59,3,,,,,202.74543599999743,203.74497900001006,203.74497900001006,203.74497900001006,203.74497900001006,203.7783053999883,204.74465459998464,204.74465459998464,z,1,0.4726364000234753,None,400trials,001,2023-10-17_19h33.01.535,sequentialearning,2023.1.3,60.10995313077554,
-50,x,15,0,60,0,,,,,205.26336169999558,206.25960350001696,206.25960350001696,206.25960350001696,206.25960350001696,206.29275550000602,207.2918207999901,207.2918207999901,x,1,0.5257969999802299,None,400trials,001,2023-10-17_19h33.01.535,sequentialearning,2023.1.3,60.10995313077554,
150,v,15,1,61,1,,,,,207.85826030001044,208.85708440002054,208.85708440002054,208.85708440002054,208.85708440002054,208.89061679999577,209.85628160001943,209.85628160001943,v,1,0.6138342000194825,None,400trials,001,2023-10-17_19h33.01.535,sequentialearning,2023.1.3,60.10995313077554,
50,c,15,2,62,2,,,,,210.5216757999733,211.52121769997757,211.52121769997757,211.52121769997757,211.52121769997757,211.5545139000169,212.5202765999711,212.5202765999711,c,1,0.5555007999646477,None,400trials,001,2023-10-17_19h33.01.535,sequentialearning,2023.1.3,60.10995313077554,
-150,z,15,3,63,3,,,,,213.12003410002217,214.1189126999816,214.1189126999816,214.1189126999816,214.1189126999816,214.1520883999765,215.11786830000347,215.11786830000347,z,1,0.4687199000036344,None,400trials,001,2023-10-17_19h33.01.535,sequentialearning,2023.1.3,60.10995313077554,
-50,x,16,0,64,0,,,,,215.65016999997897,216.64965330000268,216.64965330000268,216.64965330000268,216.64965330000268,216.68315019999864,217.66522530000657,217.66522530000657,x,1,0.5085150999948382,None,400trials,001,2023-10-17_19h33.01.535,sequentialearning,2023.1.3,60.10995313077554,
150,v,16,1,65,1,,,,,218.2177993999794,219.23104729998158,219.23104729998158,219.23104729998158,219.23104729998158,219.23104729998158,220.22972529998515,220.22972529998515,v,1,0.3877171999774873,None,400trials,001,2023-10-17_19h33.01.535,sequentialearning,2023.1.3,60.10995313077554,
50,c,16,2,66,2,,,,,220.66194750001887,221.66168449999532,221.66168449999532,221.66168449999532,221.66168449999532,221.6953088999726,222.66153929999564,222.66153929999564,c,1,0.4615697999834083,None,400trials,001,2023-10-17_19h33.01.535,sequentialearning,2023.1.3,60.10995313077554,
-150,z,16,3,67,3,,,,,223.1602609999827,224.15999949997058,224.15999949997058,224.15999949997058,224.15999949997058,224.19270780001534,225.1580742999795,225.1580742999795,z,1,0.76707569998689,None,400trials,001,2023-10-17_19h33.01.535,sequentialearning,2023.1.3,60.10995313077554,
-50,x,17,0,68,0,,,,,225.9775123000145,226.98995359998662,226.98995359998662,226.98995359998662,226.98995359998662,226.98995359998662,227.98956130002625,227.98956130002625,x,1,0.5672832000418566,None,400trials,001,2023-10-17_19h33.01.535,sequentialearning,2023.1.3,60.10995313077554,
150,v,17,1,69,1,,,,,228.62113530002534,229.62129199999617,229.62129199999617,229.62129199999617,229.62129199999617,229.6541176000028,230.62004549999256,230.62004549999256,v,1,0.5422436000080779,None,400trials,001,2023-10-17_19h33.01.535,sequentialearning,2023.1.3,60.10995313077554,
50,c,17,2,70,2,,,,,231.2187494999962,232.21918459999142,232.21918459999142,232.21918459999142,232.21918459999142,232.25169740000274,233.21744999999646,233.21744999999646,c,1,0.5622648999560624,None,400trials,001,2023-10-17_19h33.01.535,sequentialearning,2023.1.3,60.10995313077554,
-150,z,17,3,71,3,,,,,233.81643040000927,234.81615640001837,234.81615640001837,234.81615640001837,234.81615640001837,234.84989910002332,235.81521769997198,235.81521769997198,z,1,0.5701313000172377,None,400trials,001,2023-10-17_19h33.01.535,sequentialearning,2023.1.3,60.10995313077554,
-50,x,18,0,72,0,,,,,236.43449740001233,237.447259699984,237.447259699984,237.447259699984,237.447259699984,237.447259699984,238.4461632000166,238.4461632000166,x,1,0.6880892000044696,None,400trials,001,2023-10-17_19h33.01.535,sequentialearning,2023.1.3,60.10995313077554,
150,v,18,1,73,1,,,,,239.17786410002736,240.17727089999244,240.17727089999244,240.17727089999244,240.17727089999244,240.19738329999382,241.19411550002405,241.19411550002405,v,1,0.4118763000005856,None,400trials,001,2023-10-17_19h33.01.535,sequentialearning,2023.1.3,60.10995313077554,
50,c,18,2,74,2,,,,,241.65911599999527,242.65875080000842,242.65875080000842,242.65875080000842,242.65875080000842,242.69195160001982,243.67480829998385,243.67480829998385,x,0,0.3536900000181049,None,400trials,001,2023-10-17_19h33.01.535,sequentialearning,2023.1.3,60.10995313077554,
-150,z,18,3,75,3,,,,,244.07365209999261,245.07347449997906,245.07347449997906,245.07347449997906,245.07347449997906,245.1064288999769,246.07252619997598,246.07252619997598,z,1,0.6804594999994151,None,400trials,001,2023-10-17_19h33.01.535,sequentialearning,2023.1.3,60.10995313077554,
-50,x,19,0,76,0,,,,,246.79115970002022,247.80390300002182,247.80390300002182,247.80390300002182,247.80390300002182,247.80390300002182,248.80313379998552,248.80313379998552,x,1,0.5794725999585353,None,400trials,001,2023-10-17_19h33.01.535,sequentialearning,2023.1.3,60.10995313077554,
150,v,19,1,77,1,,,,,249.43515689997002,250.43493119999766,250.43493119999766,250.43493119999766,250.43493119999766,250.46789919998264,251.41925430000992,251.41925430000992,v,1,0.63801070000045,None,400trials,001,2023-10-17_19h33.01.535,sequentialearning,2023.1.3,60.10995313077554,
50,c,19,2,78,2,,,,,252.1027705000015,253.18387800001074,253.18387800001074,253.18387800001074,253.18387800001074,253.18387800001074,254.11489510000683,254.11489510000683,c,1,0.5762670999974944,None,400trials,001,2023-10-17_19h33.01.535,sequentialearning,2023.1.3,60.10995313077554,
-150,z,19,3,79,3,,,,,254.73380799998995,255.7465178000275,255.7465178000275,255.7465178000275,255.7465178000275,255.7465178000275,256.745351199992,256.745351199992,z,1,0.4153123999712989,None,400trials,001,2023-10-17_19h33.01.535,sequentialearning,2023.1.3,60.10995313077554,
-50,x,20,0,80,0,,,,,257.2110817999928,258.21101959998487,258.21101959998487,258.21101959998487,258.21101959998487,258.2440570999752,259.2100143000134,259.2100143000134,x,1,0.4508606999879703,None,400trials,001,2023-10-17_19h33.01.535,sequentialearning,2023.1.3,60.10995313077554,
150,v,20,1,81,1,,,,,259.7087133000023,260.7090889000101,260.7090889000101,260.7090889000101,260.7090889000101,260.7421891000122,261.7077523000189,261.7077523000189,v,1,0.488547999993898,None,400trials,001,2023-10-17_19h33.01.535,sequentialearning,2023.1.3,60.10995313077554,
50,c,20,2,82,2,,,,,262.22661050001625,263.239321800007,263.239321800007,263.239321800007,263.239321800007,263.239321800007,264.2385916999774,264.2385916999774,c,1,0.4127744000288658,None,400trials,001,2023-10-17_19h33.01.535,sequentialearning,2023.1.3,60.10995313077554,
-150,z,20,3,83,3,,,,,264.69117329997243,265.7071225999971,265.7071225999971,265.7071225999971,265.7071225999971,265.73714270000346,266.7196310000145,266.7196310000145,z,1,0.526099200011231,None,400trials,001,2023-10-17_19h33.01.535,sequentialearning,2023.1.3,60.10995313077554,
-50,x,21,0,84,0,,,,,267.28514890000224,268.2850522000226,268.2850522000226,268.2850522000226,268.2850522000226,268.3182599999709,269.2842037000228,269.2842037000228,x,1,0.6128979999921285,None,400trials,001,2023-10-17_19h33.01.535,sequentialearning,2023.1.3,60.10995313077554,
150,v,21,1,85,1,,,,,269.9364095000201,270.9488138000015,270.9488138000015,270.9488138000015,270.9488138000015,270.9488138000015,271.94833949999884,271.94833949999884,v,1,0.6325865000253543,None,400trials,001,2023-10-17_19h33.01.535,sequentialearning,2023.1.3,60.10995313077554,
50,c,21,2,86,2,,,,,272.61368010001024,273.59763829997974,273.59763829997974,273.59763829997974,273.59763829997974,273.6142543000169,274.5968648000271,274.5968648000271,c,1,0.38608450000174344,None,400trials,001,2023-10-17_19h33.01.535,sequentialearning,2023.1.3,60.10995313077554,
-150,z,21,3,87,3,,,,,275.01300530001754,276.0267548999982,276.0267548999982,276.0267548999982,276.0267548999982,276.0267548999982,277.0261726999888,277.0261726999888,z,1,0.46732120000524446,None,400trials,001,2023-10-17_19h33.01.535,sequentialearning,2023.1.3,60.10995313077554,
-50,x,22,0,88,0,,,,,277.5456257999758,278.5582199000055,278.5582199000055,278.5582199000055,278.5582199000055,278.5582199000055,279.55729510000674,279.55729510000674,x,1,0.6112365999724716,None,400trials,001,2023-10-17_19h33.01.535,sequentialearning,2023.1.3,60.10995313077554,
150,v,22,1,89,1,,,,,280.20995500002755,281.2225880000042,281.2225880000042,281.2225880000042,281.2225880000042,281.2225880000042,282.2215687999851,282.2215687999851,v,1,0.3355257000075653,None,400trials,001,2023-10-17_19h33.01.535,sequentialearning,2023.1.3,60.10995313077554,
50,c,22,2,90,2,,,,,282.6216954999836,283.62062379997224,283.62062379997224,283.62062379997224,283.62062379997224,283.6540543999872,284.61937640002,284.61937640002,c,1,0.5494313999661244,None,400trials,001,2023-10-17_19h33.01.535,sequentialearning,2023.1.3,60.10995313077554,
-150,z,22,3,91,3,,,,,285.1871400999953,286.1845015999861,286.1845015999861,286.1845015999861,286.1845015999861,286.21791990002384,287.21707900002366,287.21707900002366,z,1,0.5052986000082456,None,400trials,001,2023-10-17_19h33.01.535,sequentialearning,2023.1.3,60.10995313077554,
-50,x,23,0,92,0,,,,,287.7830779000069,288.78230179997627,288.78230179997627,288.78230179997627,288.78230179997627,288.8154079000233,289.78140360000543,289.78140360000543,x,1,0.5291658999631181,None,400trials,001,2023-10-17_19h33.01.535,sequentialearning,2023.1.3,60.10995313077554,
150,v,23,1,93,1,,,,,290.3474575,291.34672909998335,291.34672909998335,291.34672909998335,291.34672909998335,291.38013740000315,292.3300227000145,292.3300227000145,v,1,0.4307326999842189,None,400trials,001,2023-10-17_19h33.01.535,sequentialearning,2023.1.3,60.10995313077554,
50,c,23,2,94,2,,,,,292.7950245999964,293.79415749997133,293.79415749997133,293.79415749997133,293.79415749997133,293.8277604000177,294.79350909998175,294.79350909998175,c,1,0.5586052999715321,None,400trials,001,2023-10-17_19h33.01.535,sequentialearning,2023.1.3,60.10995313077554,
-150,z,23,3,95,3,,,,,295.39276560000144,296.39167380001163,296.39167380001163,296.39167380001163,296.39167380001163,296.42512759997044,297.391489600006,297.391489600006,z,1,2.0806225999840535,None,400trials,001,2023-10-17_19h33.01.535,sequentialearning,2023.1.3,60.10995313077554,
-50,x,24,0,96,0,,,,,299.52298720000545,300.52117979998,300.52117979998,300.52117979998,300.52117979998,300.55508060002467,301.52025010000216,301.52025010000216,x,1,1.6632824999978766,None,400trials,001,2023-10-17_19h33.01.535,sequentialearning,2023.1.3,60.10995313077554,
150,v,24,1,97,1,,,,,303.2194173000171,304.21802670002216,304.21802670002216,304.21802670002216,304.21802670002216,304.2511830999865,305.2334039999987,305.2334039999987,v,1,0.40308449999429286,None,400trials,001,2023-10-17_19h33.01.535,sequentialearning,2023.1.3,60.10995313077554,
50,c,24,2,98,2,,,,,305.6999166000169,306.698928400001,306.698928400001,306.698928400001,306.698928400001,306.73240290000103,307.69783730001654,307.69783730001654,c,1,0.890903800027445,None,400trials,001,2023-10-17_19h33.01.535,sequentialearning,2023.1.3,60.10995313077554,
-150,z,24,3,99,3,,,,,308.6303543000249,309.629405100015,309.629405100015,309.629405100015,309.629405100015,309.6627224999829,310.6281569999992,310.6281569999992,z,1,0.3867653000052087,None,400trials,001,2023-10-17_19h33.01.535,sequentialearning,2023.1.3,60.10995313077554,
-50,x,25,0,100,0,,,,,311.061675200006,312.06042459997116,312.06042459997116,312.06042459997116,312.06042459997116,312.0937929999782,313.0598398000002,313.0598398000002,x,1,0.6193712000385858,None,400trials,001,2023-10-17_19h33.01.535,sequentialearning,2023.1.3,60.10995313077554,
150,v,25,1,101,1,,,,,313.72575799998594,314.7245232000132,314.7245232000132,314.7245232000132,314.7245232000132,314.75804749998497,315.72370989999035,315.72370989999035,v,1,0.49373809999087825,None,400trials,001,2023-10-17_19h33.01.535,sequentialearning,2023.1.3,60.10995313077554,
50,c,25,2,102,2,,,,,316.25683229998685,317.2554128000047,317.2554128000047,317.2554128000047,317.2554128000047,317.28921269997954,318.2545004999847,318.2545004999847,c,1,0.4332830000203103,None,400trials,001,2023-10-17_19h33.01.535,sequentialearning,2023.1.3,60.10995313077554,
-150,z,25,3,103,3,,,,,318.7208593999967,319.7198427999974,319.7198427999974,319.7198427999974,319.7198427999974,319.7529924000264,320.71915740001714,320.71915740001714,z,1,0.38053249998483807,None,400trials,001,2023-10-17_19h33.01.535,sequentialearning,2023.1.3,60.10995313077554,
-50,x,26,0,104,0,,,,,321.1520098000183,322.15110979997553,322.15110979997553,322.15110979997553,322.15110979997553,322.1846078999806,323.1669605000061,323.1669605000061,x,1,0.45274800003971905,None,400trials,001,2023-10-17_19h33.01.535,sequentialearning,2023.1.3,60.10995313077554,
150,v,26,1,105,1,,,,,323.6662950000027,324.66524890001165,324.66524890001165,324.66524890001165,324.66524890001165,324.6987243000185,325.66438630002085,325.66438630002085,c,0,0.3983898999867961,None,400trials,001,2023-10-17_19h33.01.535,sequentialearning,2023.1.3,60.10995313077554,
50,c,26,2,106,2,,,,,326.0973893000046,327.0966415000148,327.0966415000148,327.0966415000148,327.0966415000148,327.12953430000925,328.0954901999794,328.0954901999794,c,1,0.449427800020203,None,400trials,001,2023-10-17_19h33.01.535,sequentialearning,2023.1.3,60.10995313077554,
-150,z,26,3,107,3,,,,,328.5951142000267,329.5941517999745,329.5941517999745,329.5941517999745,329.5941517999745,329.6274170000106,330.59339390002424,330.59339390002424,z,1,0.6746140999603085,None,400trials,001,2023-10-17_19h33.01.535,sequentialearning,2023.1.3,60.10995313077554,
-50,x,27,0,108,0,,,,,331.3260559000191,332.3249415999744,332.3249415999744,332.3249415999744,332.3249415999744,332.35842250002315,333.32392569998046,333.32392569998046,x,1,0.7262308999779634,None,400trials,001,2023-10-17_19h33.01.535,sequentialearning,2023.1.3,60.10995313077554,
150,v,27,1,109,1,,,,,334.08981360000325,335.08882110001286,335.08882110001286,335.08882110001286,335.08882110001286,335.1221689999802,336.08871969999745,336.08871969999745,v,1,0.39416719996370375,None,400trials,001,2023-10-17_19h33.01.535,sequentialearning,2023.1.3,60.10995313077554,
50,c,27,2,110,2,,,,,336.52077820000704,337.5199422999867,337.5199422999867,337.5199422999867,337.5199422999867,337.5533750000177,338.51942530000815,338.51942530000815,c,1,0.5701283999951556,None,400trials,001,2023-10-17_19h33.01.535,sequentialearning,2023.1.3,60.10995313077554,
-150,z,27,3,111,3,,,,,339.1518443999812,340.15103629999794,340.15103629999794,340.15103629999794,340.15103629999794,340.1843238999718,341.15011240000604,341.15011240000604,z,1,0.6577770000440069,None,400trials,001,2023-10-17_19h33.01.535,sequentialearning,2023.1.3,60.10995313077554,
-50,x,28,0,112,0,,,,,341.8488208000199,342.84830319997855,342.84830319997855,342.84830319997855,342.84830319997855,342.88167919998523,343.84748539997963,343.84748539997963,x,1,0.6626972000231035,None,400trials,001,2023-10-17_19h33.01.535,sequentialearning,2023.1.3,60.10995313077554,
150,v,28,1,113,1,,,,,344.5468056999962,345.5306102000177,345.5306102000177,345.5306102000177,345.5306102000177,345.5477380999946,346.56151049997425,346.56151049997425,v,1,0.5343316000071354,None,400trials,001,2023-10-17_19h33.01.535,sequentialearning,2023.1.3,60.10995313077554,
50,c,28,2,114,2,,,,,347.16098200000124,348.16029379999964,348.16029379999964,348.16029379999964,348.16029379999964,348.1936709000147,349.15916209999705,349.15916209999705,c,1,0.4795123999938369,None,400trials,001,2023-10-17_19h33.01.535,sequentialearning,2023.1.3,60.10995313077554,
-150,z,28,3,115,3,,,,,349.6921828999766,350.69119209999917,350.69119209999917,350.69119209999917,350.69119209999917,350.7242555000121,351.69034839997767,351.69034839997767,z,1,0.4183451000135392,None,400trials,001,2023-10-17_19h33.01.535,sequentialearning,2023.1.3,60.10995313077554,
-50,x,29,0,116,0,,,,,352.15611839998746,353.15531850000843,353.15531850000843,353.15531850000843,353.15531850000843,353.18896010000026,354.1543682999909,354.1543682999909,x,1,0.3332424000254832,None,400trials,001,2023-10-17_19h33.01.535,sequentialearning,2023.1.3,60.10995313077554,
150,v,29,1,117,1,,,,,354.5207443999825,355.5201880999957,355.5201880999957,355.5201880999957,355.5201880999957,355.5531420999905,356.51885039999615,356.51885039999615,v,1,0.4409351999638602,None,400trials,001,2023-10-17_19h33.01.535,sequentialearning,2023.1.3,60.10995313077554,
50,c,29,2,118,2,,,,,357.0182512999745,358.01782269997057,358.01782269997057,358.01782269997057,358.01782269997057,358.05067989998497,359.0164526000153,359.0164526000153,c,1,0.44946239999262616,None,400trials,001,2023-10-17_19h33.01.535,sequentialearning,2023.1.3,60.10995313077554,
-150,z,29,3,119,3,,,,,359.5161346999812,360.5150420999853,360.5150420999853,360.5150420999853,360.5150420999853,360.548331100028,361.51441509998403,361.51441509998403,z,1,1.0881713000126183,None,400trials,001,2023-10-17_19h33.01.535,sequentialearning,2023.1.3,60.10995313077554,
-50,x,30,0,120,0,,,,,362.64670240000123,363.64584289997583,363.64584289997583,363.64584289997583,363.64584289997583,363.6796810000087,364.64450840000063,364.64450840000063,x,1,0.3162095999578014,None,400trials,001,2023-10-17_19h33.01.535,sequentialearning,2023.1.3,60.10995313077554,
150,v,30,1,121,1,,,,,365.0111875999719,366.01003280002624,366.01003280002624,366.01003280002624,366.01003280002624,366.0433742000023,367.00903429999016,367.00903429999016,v,1,0.4830689000082202,None,400trials,001,2023-10-17_19h33.01.535,sequentialearning,2023.1.3,60.10995313077554,
50,c,30,2,122,2,,,,,367.54141679999884,368.5410637999885,368.5410637999885,368.5410637999885,368.5410637999885,368.57405769999605,369.54036949999863,369.54036949999863,c,1,0.618620099965483,None,400trials,001,2023-10-17_19h33.01.535,sequentialearning,2023.1.3,60.10995313077554,
-150,z,30,3,123,3,,,,,370.2060263999738,371.20508579997113,371.20508579997113,371.20508579997113,371.20508579997113,371.2384424000047,372.22116999997525,372.22116999997525,z,1,0.3843963999534026,None,400trials,001,2023-10-17_19h33.01.535,sequentialearning,2023.1.3,60.10995313077554,
-50,x,31,0,124,0,,,,,372.6543770999997,373.65343419997953,373.65343419997953,373.65343419997953,373.65343419997953,373.6860638000071,374.65192319999915,374.65192319999915,x,1,0.6435724999755621,None,400trials,001,2023-10-17_19h33.01.535,sequentialearning,2023.1.3,60.10995313077554,
150,v,31,1,125,1,,,,,375.35135359998094,376.35049719997915,376.35049719997915,376.35049719997915,376.35049719997915,376.3842981000198,377.34918229997857,377.34918229997857,v,1,0.4608667000429705,None,400trials,001,2023-10-17_19h33.01.535,sequentialearning,2023.1.3,60.10995313077554,
50,c,31,2,126,2,,,,,377.8491203999729,378.8479341000202,378.8479341000202,378.8479341000202,378.8479341000202,378.8811313000042,379.86397240002407,379.86397240002407,c,1,0.525008800032083,None,400trials,001,2023-10-17_19h33.01.535,sequentialearning,2023.1.3,60.10995313077554,
-150,z,31,3,127,3,,,,,380.4296688999748,381.4291013000184,381.4291013000184,381.4291013000184,381.4291013000184,381.4623208999983,382.42821290000575,382.42821290000575,z,1,0.43643299996620044,None,400trials,001,2023-10-17_19h33.01.535,sequentialearning,2023.1.3,60.10995313077554,
-50,x,32,0,128,0,,,,,382.91203990002396,383.9098913000198,383.9098913000198,383.9098913000198,383.9098913000198,383.9433994999854,384.9430855999817,384.9430855999817,x,1,0.7764921999769285,None,400trials,001,2023-10-17_19h33.01.535,sequentialearning,2023.1.3,60.10995313077554,
150,v,32,1,129,1,,,,,385.7749694000231,386.77388450002763,386.77388450002763,386.77388450002763,386.77388450002763,386.8079148000106,387.77243890002137,387.77243890002137,v,1,0.5049493999686092,None,400trials,001,2023-10-17_19h33.01.535,sequentialearning,2023.1.3,60.10995313077554,
50,c,32,2,130,2,,,,,388.3389059000183,389.3382444999879,389.3382444999879,389.3382444999879,389.3382444999879,389.3715565999737,390.3374318999704,390.3374318999704,c,1,0.30544980004196987,None,400trials,001,2023-10-17_19h33.01.535,sequentialearning,2023.1.3,60.10995313077554,
-150,z,32,3,131,3,,,,,390.70385779999197,391.70277430000715,391.70277430000715,391.70277430000715,391.70277430000715,391.7367926000152,392.7021277999738,392.7021277999738,z,1,0.3265358000062406,None,400trials,001,2023-10-17_19h33.01.535,sequentialearning,2023.1.3,60.10995313077554,
-50,x,33,0,132,0,,,,,393.0680269000004,394.06739909999305,394.06739909999305,394.06739909999305,394.06739909999305,394.1003740999731,395.0661044999724,395.0661044999724,x,1,0.4449683999991976,None,400trials,001,2023-10-17_19h33.01.535,sequentialearning,2023.1.3,60.10995313077554,
150,v,33,1,133,1,,,,,395.56568120000884,396.5647869000095,396.5647869000095,396.5647869000095,396.5647869000095,396.5981288999901,397.56421859998954,397.56421859998954,v,1,0.3351703999796882,None,400trials,001,2023-10-17_19h33.01.535,sequentialearning,2023.1.3,60.10995313077554,
50,c,33,2,134,2,,,,,397.96377769997343,398.9624622000265,398.9624622000265,398.9624622000265,398.9624622000265,398.9957119000028,399.9610097000259,399.9610097000259,c,1,0.3422603000071831,None,400trials,001,2023-10-17_19h33.01.535,sequentialearning,2023.1.3,60.10995313077554,
-150,z,33,3,135,3,,,,,400.36149330000626,401.36018989997683,401.36018989997683,401.36018989997683,401.36018989997683,401.39366409997456,402.3581536000129,402.3581536000129,z,1,0.3404823999735527,None,400trials,001,2023-10-17_19h33.01.535,sequentialearning,2023.1.3,60.10995313077554,
-50,x,34,0,136,0,,,,,402.72688909998396,403.7412716000108,403.7412716000108,403.7412716000108,403.7412716000108,403.7412716000108,404.7399893000256,404.7399893000256,x,1,0.28047800000058487,None,400trials,001,2023-10-17_19h33.01.535,sequentialearning,2023.1.3,60.10995313077554,
150,v,34,1,137,1,,,,,405.07349029998295,406.07265410001855,406.07265410001855,406.07265410001855,406.07265410001855,406.10609650000697,407.0717341999989,407.0717341999989,v,1,0.3127033999771811,None,400trials,001,2023-10-17_19h33.01.535,sequentialearning,2023.1.3,60.10995313077554,
50,c,34,2,138,2,,,,,407.4378583999933,408.4368238999741,408.4368238999741,408.4368238999741,408.4368238999741,408.47020059998613,409.43598920002114,409.43598920002114,c,1,0.3143741999519989,None,400trials,001,2023-10-17_19h33.01.535,sequentialearning,2023.1.3,60.10995313077554,
-150,z,34,3,139,3,,,,,409.802302600001,410.80209080001805,410.80209080001805,410.80209080001805,410.80209080001805,410.83511119999457,411.8173654000275,411.8173654000275,z,1,0.32237770000938326,None,400trials,001,2023-10-17_19h33.01.535,sequentialearning,2023.1.3,60.10995313077554,
-50,x,35,0,140,0,,,,,412.1835675999755,413.1676575000165,413.1676575000165,413.1676575000165,413.1676575000165,413.1993282000185,414.1983586999704,414.1983586999704,x,1,0.27364959998521954,None,400trials,001,2023-10-17_19h33.01.535,sequentialearning,2023.1.3,60.10995313077554,
150,v,35,1,141,1,,,,,414.5314956000075,415.5310598000069,415.5310598000069,415.5310598000069,415.5310598000069,415.5636557000107,416.5464496000204,416.5464496000204,v,1,0.5515676999930292,None,400trials,001,2023-10-17_19h33.01.535,sequentialearning,2023.1.3,60.10995313077554,
50,c,35,2,142,2,,,,,417.14616699999897,418.14464339998085,418.14464339998085,418.14464339998085,418.14464339998085,418.1779768000124,419.1438769000233,419.1438769000233,c,1,0.38281830004416406,None,400trials,001,2023-10-17_19h33.01.535,sequentialearning,2023.1.3,60.10995313077554,
-150,z,35,3,143,3,,,,,419.5766385999741,420.57564519997686,420.57564519997686,420.57564519997686,420.57564519997686,420.60906669998076,421.57496950001223,421.57496950001223,z,1,0.5269723999663256,None,400trials,001,2023-10-17_19h33.01.535,sequentialearning,2023.1.3,60.10995313077554,
-50,x,36,0,144,0,,,,,422.1409032000229,423.1399889999884,423.1399889999884,423.1399889999884,423.1399889999884,423.173418499995,424.13923829997657,424.13923829997657,x,1,0.28206639998825267,None,400trials,001,2023-10-17_19h33.01.535,sequentialearning,2023.1.3,60.10995313077554,
150,v,36,1,145,1,,,,,424.4724221000215,425.47122850001324,425.47122850001324,425.47122850001324,425.47122850001324,425.50432549999095,426.47011310001835,426.47011310001835,v,1,0.2948799000005238,None,400trials,001,2023-10-17_19h33.01.535,sequentialearning,2023.1.3,60.10995313077554,
50,c,36,2,146,2,,,,,426.80306459998246,427.80217669997364,427.80217669997364,427.80217669997364,427.80217669997364,427.83532259997446,428.80158289999235,428.80158289999235,c,1,0.27770660002715886,None,400trials,001,2023-10-17_19h33.01.535,sequentialearning,2023.1.3,60.10995313077554,
-150,z,36,3,147,3,,,,,429.1345448999782,430.1333457999863,430.1333457999863,430.1333457999863,430.1333457999863,430.16662759997416,431.1327921000193,431.1327921000193,z,1,0.38955979997990653,None,400trials,001,2023-10-17_19h33.01.535,sequentialearning,2023.1.3,60.10995313077554,
-50,x,37,0,148,0,,,,,431.56600819999585,432.5650231000036,432.5650231000036,432.5650231000036,432.5650231000036,432.5977760999813,433.5635417000158,433.5635417000158,x,1,0.06757850002031773,None,400trials,001,2023-10-17_19h33.01.535,sequentialearning,2023.1.3,60.10995313077554,
150,v,37,1,149,1,,,,,433.6640619999962,434.6627485000063,434.6627485000063,434.6627485000063,434.6627485000063,434.69640730001265,435.6613130000187,435.6613130000187,v,1,0.4755725000286475,None,400trials,001,2023-10-17_19h33.01.535,sequentialearning,2023.1.3,60.10995313077554,
50,c,37,2,150,2,,,,,436.19438689999515,437.19337809999706,437.19337809999706,437.19337809999706,437.19337809999706,437.2265311999945,438.19254680001177,438.19254680001177,c,1,0.3039246000116691,None,400trials,001,2023-10-17_19h33.01.535,sequentialearning,2023.1.3,60.10995313077554,
-150,z,37,3,151,3,,,,,438.55934580002213,439.55807979998644,439.55807979998644,439.55807979998644,439.55807979998644,439.5910828000051,440.5570473999833,440.5570473999833,z,1,0.3638771999976598,None,400trials,001,2023-10-17_19h33.01.535,sequentialearning,2023.1.3,60.10995313077554,
-50,x,38,0,152,0,,,,,440.95645260001766,441.95621039997786,441.95621039997786,441.95621039997786,441.95621039997786,441.98885209998116,442.95481379999546,442.95481379999546,x,1,0.2834473000257276,None,400trials,001,2023-10-17_19h33.01.535,sequentialearning,2023.1.3,60.10995313077554,
150,v,38,1,153,1,,,,,443.28663530002814,444.28690409997944,444.28690409997944,444.28690409997944,444.28690409997944,444.3202397999703,445.30361730000004,445.30361730000004,v,1,0.31506110000191256,None,400trials,001,2023-10-17_19h33.01.535,sequentialearning,2023.1.3,60.10995313077554,
50,c,38,2,154,2,,,,,445.6580918999971,446.6516399999964,446.6516399999964,446.6516399999964,446.6516399999964,446.6845013999846,447.6843510000035,447.6843510000035,c,1,0.5262548999744467,None,400trials,001,2023-10-17_19h33.01.535,sequentialearning,2023.1.3,60.10995313077554,
-150,z,38,3,155,3,,,,,448.2496786999982,449.2489085000125,449.2489085000125,449.2489085000125,449.2489085000125,449.2827469999902,450.248063099978,450.248063099978,z,1,0.4485963999759406,None,400trials,001,2023-10-17_19h33.01.535,sequentialearning,2023.1.3,60.10995313077554,
-50,x,39,0,156,0,,,,,450.74750759999733,451.7468709999812,451.7468709999812,451.7468709999812,451.7468709999812,451.7801560999942,452.74589309998555,452.74589309998555,x,1,0.2441341999801807,None,400trials,001,2023-10-17_19h33.01.535,sequentialearning,2023.1.3,60.10995313077554,
150,v,39,1,157,1,,,,,453.0453177000163,454.04452230001334,454.04452230001334,454.04452230001334,454.04452230001334,454.0777538000257,455.0436526000267,455.0436526000267,v,1,0.44772349996492267,None,400trials,001,2023-10-17_19h33.01.535,sequentialearning,2023.1.3,60.10995313077554,
50,c,39,2,158,2,,,,,455.54296190000605,456.54176729999017,456.54176729999017,456.54176729999017,456.54176729999017,456.57554250000976,457.5412254999974,457.5412254999974,c,1,0.341037200007122,None,400trials,001,2023-10-17_19h33.01.535,sequentialearning,2023.1.3,60.10995313077554,
-150,z,39,3,159,3,,,,,457.94040099997073,458.93968150002183,458.93968150002183,458.93968150002183,458.93968150002183,458.97299939999357,459.9388412000262,459.9388412000262,z,1,0.32816159998765215,None,400trials,001,2023-10-17_19h33.01.535,sequentialearning,2023.1.3,60.10995313077554,
-50,x,40,0,160,0,,,,,460.3048902999726,461.30419549997896,461.30419549997896,461.30419549997896,461.30419549997896,461.337839099986,462.30354659998557,462.30354659998557,x,1,0.30397040001116693,None,400trials,001,2023-10-17_19h33.01.535,sequentialearning,2023.1.3,60.10995313077554,
150,v,40,1,161,1,,,,,462.66982579999603,463.66885239997646,463.66885239997646,463.66885239997646,463.66885239997646,463.7021313000005,464.66784309997456,464.66784309997456,v,1,0.3925571000436321,None,400trials,001,2023-10-17_19h33.01.535,sequentialearning,2023.1.3,60.10995313077554,
50,c,40,2,162,2,,,,,465.1006343999761,466.084738000005,466.084738000005,466.084738000005,466.084738000005,466.1011311999755,467.0989643000066,467.0989643000066,c,1,0.3191547999740578,None,400trials,001,2023-10-17_19h33.01.535,sequentialearning,2023.1.3,60.10995313077554,
-150,z,40,3,163,3,,,,,467.46626319998177,468.4641759999795,468.4641759999795,468.4641759999795,468.4641759999795,468.49748449999606,469.4632517999853,469.4632517999853,z,1,0.4008860000176355,None,400trials,001,2023-10-17_19h33.01.535,sequentialearning,2023.1.3,60.10995313077554,
-50,x,41,0,164,0,,,,,469.9294775999733,470.92855539999437,470.92855539999437,470.92855539999437,470.92855539999437,470.9617747999728,471.9275864000083,471.9275864000083,x,1,0.29275140003301203,None,400trials,001,2023-10-17_19h33.01.535,sequentialearning,2023.1.3,60.10995313077554,
150,v,41,1,165,1,,,,,472.26049949997105,473.2605461999774,473.2605461999774,473.2605461999774,473.2605461999774,473.2939360999735,474.258916300023,474.258916300023,v,1,0.42142640001839027,None,400trials,001,2023-10-17_19h33.01.535,sequentialearning,2023.1.3,60.10995313077554,
50,c,41,2,166,2,,,,,474.725039699988,475.7240663000266,475.7240663000266,475.7240663000266,475.7240663000266,475.7574727999745,476.7234003000194,476.7234003000194,c,1,0.3492722000228241,None,400trials,001,2023-10-17_19h33.01.535,sequentialearning,2023.1.3,60.10995313077554,
-150,z,41,3,167,3,,,,,477.12227880000137,478.12227110000094,478.12227110000094,478.12227110000094,478.12227110000094,478.1550931999809,479.12099790002685,479.12099790002685,z,1,0.38096790004055947,None,400trials,001,2023-10-17_19h33.01.535,sequentialearning,2023.1.3,60.10995313077554,
-50,x,42,0,168,0,,,,,479.5536896000267,480.5531385000213,480.5531385000213,480.5531385000213,480.5531385000213,480.58594489999814,481.56856550002703,481.56856550002703,x,1,0.2632152000442147,None,400trials,001,2023-10-17_19h33.01.535,sequentialearning,2023.1.3,60.10995313077554,
150,v,42,1,169,1,,,,,481.8682527000201,482.867583299987,482.867583299987,482.867583299987,482.867583299987,482.90096230001654,483.86681640002644,483.86681640002644,v,1,0.3305691000423394,None,400trials,001,2023-10-17_19h33.01.535,sequentialearning,2023.1.3,60.10995313077554,
50,c,42,2,170,2,,,,,484.2328015000094,485.2318813999882,485.2318813999882,485.2318813999882,485.2318813999882,485.2654659000109,486.23142049997114,486.23142049997114,c,1,0.3199573999736458,None,400trials,001,2023-10-17_19h33.01.535,sequentialearning,2023.1.3,60.10995313077554,
-150,z,42,3,171,3,,,,,486.59764599998016,487.59625479998067,487.59625479998067,487.59625479998067,487.59625479998067,487.6298043000279,488.5953975999728,488.5953975999728,z,1,0.42510689998744056,None,400trials,001,2023-10-17_19h33.01.535,sequentialearning,2023.1.3,60.10995313077554,
-50,x,43,0,172,0,,,,,489.0614785000216,490.06081070000073,490.06081070000073,490.06081070000073,490.06081070000073,490.0939420000068,491.05976879998343,491.05976879998343,x,1,0.3748650000197813,None,400trials,001,2023-10-17_19h33.01.535,sequentialearning,2023.1.3,60.10995313077554,
150,v,43,1,173,1,,,,,491.49272600002587,492.49178560002474,492.49178560002474,492.49178560002474,492.49178560002474,492.52499130001524,493.4906214000075,493.4906214000075,v,1,0.39943169994512573,None,400trials,001,2023-10-17_19h33.01.535,sequentialearning,2023.1.3,60.10995313077554,
50,c,43,2,174,2,,,,,493.9237067999784,494.9229016000172,494.9229016000172,494.9229016000172,494.9229016000172,494.95621039997786,495.92206369998166,495.92206369998166,c,1,0.38224070001160726,None,400trials,001,2023-10-17_19h33.01.535,sequentialearning,2023.1.3,60.10995313077554,
-150,z,43,3,175,3,,,,,496.35470000002533,497.3539338000119,497.3539338000119,497.3539338000119,497.3539338000119,497.3874128999887,498.3535894000088,498.3535894000088,z,1,0.31806600000709295,None,400trials,001,2023-10-17_19h33.01.535,sequentialearning,2023.1.3,60.10995313077554,
-50,x,44,0,176,0,,,,,498.71953100000974,499.71818169998005,499.71818169998005,499.71818169998005,499.71818169998005,499.7515847000177,500.717348199978,500.717348199978,x,1,0.2839982000296004,None,400trials,001,2023-10-17_19h33.01.535,sequentialearning,2023.1.3,60.10995313077554,
150,v,44,1,177,1,,,,,501.0502001999994,502.04967009997927,502.04967009997927,502.04967009997927,502.04967009997927,502.08283129998017,503.0490277999779,503.0490277999779,v,1,0.29947299999184906,None,400trials,001,2023-10-17_19h33.01.535,sequentialearning,2023.1.3,60.10995313077554,
50,c,44,2,178,2,,,,,503.38178320002044,504.38085429999046,504.38085429999046,504.38085429999046,504.38085429999046,504.41410250001354,505.37981890002266,505.37981890002266,c,1,0.5642735000001267,None,400trials,001,2023-10-17_19h33.01.535,sequentialearning,2023.1.3,60.10995313077554,
-150,z,44,3,179,3,,,,,505.99614459997974,506.9953193999827,506.9953193999827,506.9953193999827,506.9953193999827,507.02810009999666,507.99387690000003,507.99387690000003,z,1,0.43680060002952814,None,400trials,001,2023-10-17_19h33.01.535,sequentialearning,2023.1.3,60.10995313077554,
-50,x,45,0,180,0,,,,,508.49315809999825,509.49270090000937,509.49270090000937,509.49270090000937,509.49270090000937,509.5256689999951,510.5082471999922,510.5082471999922,x,1,0.5526184999616817,None,400trials,001,2023-10-17_19h33.01.535,sequentialearning,2023.1.3,60.10995313077554,
150,v,45,1,181,1,,,,,511.1076962000225,512.1067053999868,512.1067053999868,512.1067053999868,512.1067053999868,512.1400656999904,513.106273500016,513.106273500016,v,1,0.5659877999569289,None,400trials,001,2023-10-17_19h33.01.535,sequentialearning,2023.1.3,60.10995313077554,
50,c,45,2,182,2,,,,,513.7049782000249,514.7052274000016,514.7052274000016,514.7052274000016,514.7052274000016,514.737748900021,515.703580899979,515.703580899979,c,1,0.36170780000975356,None,400trials,001,2023-10-17_19h33.01.535,sequentialearning,2023.1.3,60.10995313077554,
-150,z,45,3,183,3,,,,,516.1028704000055,517.1022212000098,517.1022212000098,517.1022212000098,517.1022212000098,517.1352443000069,518.1016544000013,518.1016544000013,z,1,0.31986519997008145,None,400trials,001,2023-10-17_19h33.01.535,sequentialearning,2023.1.3,60.10995313077554,
-50,x,46,0,184,0,,,,,518.467548399989,519.4665702999919,519.4665702999919,519.4665702999919,519.4665702999919,519.499960199988,520.4654285999713,520.4654285999713,x,1,0.35780920000979677,None,400trials,001,2023-10-17_19h33.01.535,sequentialearning,2023.1.3,60.10995313077554,
150,v,46,1,185,1,,,,,520.8652905999916,521.8643603000091,521.8643603000091,521.8643603000091,521.8643603000091,521.8975512000034,522.8631556999753,522.8631556999753,c,0,0.34791149996453896,None,400trials,001,2023-10-17_19h33.01.535,sequentialearning,2023.1.3,60.10995313077554,
50,c,46,2,186,2,,,,,523.2628793999902,524.2620852999971,524.2620852999971,524.2620852999971,524.2620852999971,524.2950704999967,525.261030499998,525.261030499998,c,1,0.31881819997215644,None,400trials,001,2023-10-17_19h33.01.535,sequentialearning,2023.1.3,60.10995313077554,
-150,z,46,3,187,3,,,,,525.6273482000106,526.6265424999874,526.6265424999874,526.6265424999874,526.6265424999874,526.6598586000036,527.6255034999922,527.6255034999922,z,1,0.39581979997456074,None,400trials,001,2023-10-17_19h33.01.535,sequentialearning,2023.1.3,60.10995313077554,
-50,x,47,0,188,0,,,,,528.0587264000205,529.0573569000117,529.0573569000117,529.0573569000117,529.0573569000117,529.0909372000024,530.0729575000005,530.0729575000005,x,1,0.5666295000119135,None,400trials,001,2023-10-17_19h33.01.535,sequentialearning,2023.1.3,60.10995313077554,
150,v,47,1,189,1,,,,,530.6727808999713,531.671795799979,531.671795799979,531.671795799979,531.671795799979,531.7049099999713,532.6710991999716,532.6710991999716,v,1,0.5007642999989912,None,400trials,001,2023-10-17_19h33.01.535,sequentialearning,2023.1.3,60.10995313077554,
50,c,47,2,190,2,,,,,533.2371811000048,534.2359509000089,534.2359509000089,534.2359509000089,534.2359509000089,534.2691357000149,535.2354018000187,535.2354018000187,c,1,0.4587009000242688,None,400trials,001,2023-10-17_19h33.01.535,sequentialearning,2023.1.3,60.10995313077554,
-150,z,47,3,191,3,,,,,535.7345921000233,536.7336712999968,536.7336712999968,536.7336712999968,536.7336712999968,536.7674239000189,537.7327108000172,537.7327108000172,z,1,0.4587806999916211,None,400trials,001,2023-10-17_19h33.01.535,sequentialearning,2023.1.3,60.10995313077554,
-50,x,48,0,192,0,,,,,538.2322664000094,539.2311616999796,539.2311616999796,539.2311616999796,539.2311616999796,539.2645202999702,540.2298261999968,540.2298261999968,z,0,0.4801589999697171,None,400trials,001,2023-10-17_19h33.01.535,sequentialearning,2023.1.3,60.10995313077554,
150,v,48,1,193,1,,,,,540.7316572000273,541.7456178999855,541.7456178999855,541.7456178999855,541.7456178999855,541.7788675000193,542.7459347000113,542.7459347000113,v,1,0.4905923999613151,None,400trials,001,2023-10-17_19h33.01.535,sequentialearning,2023.1.3,60.10995313077554,
50,c,48,2,194,2,,,,,543.2773118999903,544.2768841999932,544.2768841999932,544.2768841999932,544.2768841999932,544.3100253000157,545.2928107000189,545.2928107000189,c,1,0.36747830000240356,None,400trials,001,2023-10-17_19h33.01.535,sequentialearning,2023.1.3,60.10995313077554,
-150,z,48,3,195,3,,,,,545.7084432999836,546.7076601000153,546.7076601000153,546.7076601000153,546.7076601000153,546.7410323999939,547.7068148999824,547.7068148999824,z,1,0.45671699999365956,None,400trials,001,2023-10-17_19h33.01.535,sequentialearning,2023.1.3,60.10995313077554,
-50,x,49,0,196,0,,,,,548.206201300025,549.2049502999871,549.2049502999871,549.2049502999871,549.2049502999871,549.2382509000017,550.204459599976,550.204459599976,x,1,0.3385149000096135,None,400trials,001,2023-10-17_19h33.01.535,sequentialearning,2023.1.3,60.10995313077554,
150,v,49,1,197,1,,,,,550.5903925999883,551.6026178000029,551.6026178000029,551.6026178000029,551.6026178000029,551.6026178000029,552.6021843000199,552.6021843000199,v,1,0.49475040001561865,None,400trials,001,2023-10-17_19h33.01.535,sequentialearning,2023.1.3,60.10995313077554,
50,c,49,2,198,2,,,,,553.1349257000256,554.1341243999777,554.1341243999777,554.1341243999777,554.1341243999777,554.167678400001,555.1334952000179,555.1334952000179,c,1,0.3919152999878861,None,400trials,001,2023-10-17_19h33.01.535,sequentialearning,2023.1.3,60.10995313077554,
-150,z,49,3,199,3,,,,,555.5659613999887,556.5657381999772,556.5657381999772,556.5657381999772,556.5657381999772,556.598371399974,557.5640294000041,557.5640294000041,z,1,0.5625872999662533,None,400trials,001,2023-10-17_19h33.01.535,sequentialearning,2023.1.3,60.10995313077554,
50,c,,,,,0,0,0,2,558.2135964999907,559.1635521000135,559.1635521000135,559.1635521000135,559.1635521000135,559.2301075999858,560.1617856000084,560.1617856000084,c,1,0.396844900038559,None,400trials,001,2023-10-17_19h33.01.535,sequentialearning,2023.1.3,60.10995313077554,
150,v,,,,,0,1,1,1,560.5947574999882,561.593922799977,561.593922799977,561.593922799977,561.593922799977,561.6271518999711,562.6097463999758,562.6097463999758,v,1,0.4453827999532223,None,400trials,001,2023-10-17_19h33.01.535,sequentialearning,2023.1.3,60.10995313077554,
-50,x,,,,,0,2,2,0,563.1092867000261,564.0932226000004,564.0932226000004,564.0932226000004,564.0932226000004,564.1094652999891,565.1070982000092,565.1070982000092,x,1,0.4661179999820888,None,400trials,001,2023-10-17_19h33.01.535,sequentialearning,2023.1.3,60.10995313077554,
-50,x,,,,,0,3,3,0,565.6232510000118,566.6226733999792,566.6226733999792,566.6226733999792,566.6226733999792,566.6556459999993,567.6214184000273,567.6214184000273,x,1,0.6428527000243776,None,400trials,001,2023-10-17_19h33.01.535,sequentialearning,2023.1.3,60.10995313077554,
150,v,,,,,1,0,4,1,568.3209556000074,569.3201553000254,569.3201553000254,569.3201553000254,569.3201553000254,569.3532660999917,570.3190746000037,570.3190746000037,v,1,0.4639860999886878,None,400trials,001,2023-10-17_19h33.01.535,sequentialearning,2023.1.3,60.10995313077554,
50,c,,,,,1,1,5,2,570.8185412000166,571.8175850000116,571.8175850000116,571.8175850000116,571.8175850000116,571.8506867000251,572.8167218000162,572.8167218000162,c,1,0.34454010002082214,None,400trials,001,2023-10-17_19h33.01.535,sequentialearning,2023.1.3,60.10995313077554,
50,c,,,,,1,2,6,2,573.2163849999779,574.2153539999854,574.2153539999854,574.2153539999854,574.2153539999854,574.2489433999872,575.2312755999737,575.2312755999737,c,1,0.6653458999935538,None,400trials,001,2023-10-17_19h33.01.535,sequentialearning,2023.1.3,60.10995313077554,
-150,z,,,,,1,3,7,3,575.9307138000149,576.9290822999901,576.9290822999901,576.9290822999901,576.9290822999901,576.9621317000128,577.9281183999847,577.9281183999847,z,1,0.4645623000105843,None,400trials,001,2023-10-17_19h33.01.535,sequentialearning,2023.1.3,60.10995313077554,
150,v,,,,,2,0,8,1,578.4280907000066,579.4112934999866,579.4112934999866,579.4112934999866,579.4112934999866,579.4282139000134,580.4425940000219,580.4425940000219,v,1,0.7291814999771304,None,400trials,001,2023-10-17_19h33.01.535,sequentialearning,2023.1.3,60.10995313077554,
150,v,,,,,2,1,9,1,581.2084137999918,582.2077069000225,582.2077069000225,582.2077069000225,582.2077069000225,582.2411869000061,583.223556699988,583.223556699988,c,0,0.3672939999960363,None,400trials,001,2023-10-17_19h33.01.535,sequentialearning,2023.1.3,60.10995313077554,
-150,z,,,,,2,2,10,3,583.6397676999914,584.6388363000005,584.6388363000005,584.6388363000005,584.6388363000005,584.6721987000201,585.6379285000148,585.6379285000148,z,1,0.5117296000244096,None,400trials,001,2023-10-17_19h33.01.535,sequentialearning,2023.1.3,60.10995313077554,
-50,x,,,,,2,3,11,0,586.1902698000195,587.2030885000131,587.2030885000131,587.2030885000131,587.2030885000131,587.2030885000131,588.2022555000149,588.2022555000149,x,1,0.8157547999871895,None,400trials,001,2023-10-17_19h33.01.535,sequentialearning,2023.1.3,60.10995313077554,
50,c,,,,,3,0,12,2,589.067984400026,590.0670295999735,590.0670295999735,590.0670295999735,590.0670295999735,590.1004432999762,591.0663305000053,591.0663305000053,c,1,0.7602043999941088,None,400trials,001,2023-10-17_19h33.01.535,sequentialearning,2023.1.3,60.10995313077554,
150,v,,,,,3,1,13,1,591.8654259999748,592.8645446000155,592.8645446000155,592.8645446000155,592.8645446000155,592.8977919999743,593.880490600015,593.880490600015,v,1,1.238712900027167,None,400trials,001,2023-10-17_19h33.01.535,sequentialearning,2023.1.3,60.10995313077554,
150,v,,,,,3,2,14,1,595.1792765000137,596.1780082000187,596.1780082000187,596.1780082000187,596.1780082000187,596.211714199977,597.1770096999826,597.1770096999826,v,1,0.4771008999668993,None,400trials,001,2023-10-17_19h33.01.535,sequentialearning,2023.1.3,60.10995313077554,
50,c,,,,,3,3,15,2,597.7102255999926,598.692196500022,598.692196500022,598.692196500022,598.692196500022,598.7452974999906,599.692613399995,599.692613399995,c,1,0.6955128000117838,None,400trials,001,2023-10-17_19h33.01.535,sequentialearning,2023.1.3,60.10995313077554,
-50,x,,,,,4,0,16,0,600.4100499000051,601.4228270999738,601.4228270999738,601.4228270999738,601.4228270999738,601.4228270999738,602.4218495999812,602.4218495999812,x,1,0.5068762000300921,None,400trials,001,2023-10-17_19h33.01.535,sequentialearning,2023.1.3,60.10995313077554,
-50,x,,,,,4,1,17,0,602.9879736999865,603.987728099979,603.987728099979,603.987728099979,603.987728099979,604.0207469000015,605.0034762999858,605.0034762999858,x,1,0.40451959997881204,None,400trials,001,2023-10-17_19h33.01.535,sequentialearning,2023.1.3,60.10995313077554,
50,c,,,,,4,2,18,2,605.4692591999774,606.4684864999726,606.4684864999726,606.4684864999726,606.4684864999726,606.5014656999847,607.4676373000257,607.4676373000257,c,1,0.6341346999979578,None,400trials,001,2023-10-17_19h33.01.535,sequentialearning,2023.1.3,60.10995313077554,
-50,x,,,,,4,3,19,0,608.1677732000244,609.1660163999768,609.1660163999768,609.1660163999768,609.1660163999768,609.1994503000169,610.165347800008,610.165347800008,x,1,0.45629830000689253,None,400trials,001,2023-10-17_19h33.01.535,sequentialearning,2023.1.3,60.10995313077554,
50,c,,,,,5,0,20,2,610.664600100019,611.6636285000131,611.6636285000131,611.6636285000131,611.6636285000131,611.6968290000223,612.6625622999854,612.6625622999854,c,1,0.5650331000215374,None,400trials,001,2023-10-17_19h33.01.535,sequentialearning,2023.1.3,60.10995313077554,
-150,z,,,,,5,1,21,3,613.2621069999877,614.2610291999881,614.2610291999881,614.2610291999881,614.2610291999881,614.2962235999876,615.2777228999767,615.2777228999767,z,1,0.5076292000012472,None,400trials,001,2023-10-17_19h33.01.535,sequentialearning,2023.1.3,60.10995313077554,
50,c,,,,,5,2,22,2,615.8429038000177,616.841854600003,616.841854600003,616.841854600003,616.841854600003,616.8752944999724,617.8411194999935,617.8411194999935,c,1,0.4893883999902755,None,400trials,001,2023-10-17_19h33.01.535,sequentialearning,2023.1.3,60.10995313077554,
50,c,,,,,5,3,23,2,618.3739889999852,619.3732473999844,619.3732473999844,619.3732473999844,619.3732473999844,619.4062628999818,620.3724120000261,620.3724120000261,c,1,0.3810626000049524,None,400trials,001,2023-10-17_19h33.01.535,sequentialearning,2023.1.3,60.10995313077554,
-150,z,,,,,6,0,24,3,620.8050315,621.803952599992,621.803952599992,621.803952599992,621.803952599992,621.8377622999833,622.8037599999807,622.8037599999807,z,1,0.41132409998681396,None,400trials,001,2023-10-17_19h33.01.535,sequentialearning,2023.1.3,60.10995313077554,
-50,x,,,,,6,1,25,0,623.269550499972,624.2684199999785,624.2684199999785,624.2684199999785,624.2684199999785,624.3015501999762,625.2841464999947,625.2841464999947,x,1,0.6968467999831773,None,400trials,001,2023-10-17_19h33.01.535,sequentialearning,2023.1.3,60.10995313077554,
150,v,,,,,6,2,26,1,626.0166008999804,627.0157174000051,627.0157174000051,627.0157174000051,627.0157174000051,627.048916300002,628.014906299999,628.014906299999,v,1,0.5203140999656171,None,400trials,001,2023-10-17_19h33.01.535,sequentialearning,2023.1.3,60.10995313077554,
-150,z,,,,,6,3,27,3,628.5814026999869,629.5797786000185,629.5797786000185,629.5797786000185,629.5797786000185,629.5998162999749,630.5953798000119,630.5953798000119,z,1,0.45216039998922497,None,400trials,001,2023-10-17_19h33.01.535,sequentialearning,2023.1.3,60.10995313077554,
150,v,,,,,7,0,28,1,631.0818926999927,632.0943720000214,632.0943720000214,632.0943720000214,632.0943720000214,632.0943720000214,633.0935040999902,633.0935040999902,v,1,0.6156409999821335,None,400trials,001,2023-10-17_19h33.01.535,sequentialearning,2023.1.3,60.10995313077554,
-50,x,,,,,7,1,29,0,633.7596305999905,634.7586672999896,634.7586672999896,634.7586672999896,634.7586672999896,634.7919504999882,635.7575982999988,635.7575982999988,x,1,0.6026006999891251,None,400trials,001,2023-10-17_19h33.01.535,sequentialearning,2023.1.3,60.10995313077554,
-50,x,,,,,7,2,30,0,636.4236110000056,637.4228983999928,637.4228983999928,637.4228983999928,637.4228983999928,637.4563214000082,638.421854300017,638.421854300017,x,1,0.6344010999891907,None,400trials,001,2023-10-17_19h33.01.535,sequentialearning,2023.1.3,60.10995313077554,
50,c,,,,,7,3,31,2,639.1214198999805,640.1204656999907,640.1204656999907,640.1204656999907,640.1204656999907,640.1537868999876,641.1195471999818,641.1195471999818,c,1,0.3801380999502726,None,400trials,001,2023-10-17_19h33.01.535,sequentialearning,2023.1.3,60.10995313077554,
50,c,,,,,8,0,32,2,641.5525768999942,642.5512708000024,642.5512708000024,642.5512708000024,642.5512708000024,642.5847930000164,643.566961399978,643.566961399978,c,1,0.5477631000103429,None,400trials,001,2023-10-17_19h33.01.535,sequentialearning,2023.1.3,60.10995313077554,
150,v,,,,,8,1,33,1,644.165920600004,645.1651743000257,645.1651743000257,645.1651743000257,645.1651743000257,645.1984914999921,646.1810136999702,646.1810136999702,v,1,0.5489811999723315,None,400trials,001,2023-10-17_19h33.01.535,sequentialearning,2023.1.3,60.10995313077554,
50,c,,,,,8,2,34,2,646.7797858000267,647.7800988000236,647.7800988000236,647.7800988000236,647.7800988000236,647.8132715999964,648.7615084000281,648.7615084000281,c,1,5.3196171000017785,None,400trials,001,2023-10-17_19h33.01.535,sequentialearning,2023.1.3,60.10995313077554,
-150,z,,,,,8,3,35,3,654.1238644000259,655.1229904000065,655.1229904000065,655.1229904000065,655.1229904000065,655.1563165999833,656.122206399974,656.122206399974,z,1,0.6462608000147156,None,400trials,001,2023-10-17_19h33.01.535,sequentialearning,2023.1.3,60.10995313077554,
-50,x,,,,,9,0,36,0,656.821383500006,657.8207250999985,657.8207250999985,657.8207250999985,657.8207250999985,657.8538394999923,658.8197559000109,658.8197559000109,x,1,0.574424899998121,None,400trials,001,2023-10-17_19h33.01.535,sequentialearning,2023.1.3,60.10995313077554,
50,c,,,,,9,1,37,2,659.4523055999889,660.4512126999907,660.4512126999907,660.4512126999907,660.4512126999907,660.4845348999952,661.4502853999729,661.4502853999729,c,1,0.6789664000389166,None,400trials,001,2023-10-17_19h33.01.535,sequentialearning,2023.1.3,60.10995313077554,
50,c,,,,,9,2,38,2,662.1829154000152,663.1822645000066,663.1822645000066,663.1822645000066,663.1822645000066,663.2156523999874,664.1818143000128,664.1818143000128,c,1,1.2512845000019297,None,400trials,001,2023-10-17_19h33.01.535,sequentialearning,2023.1.3,60.10995313077554,
-50,x,,,,,9,3,39,0,665.480057400011,666.4792480000178,666.4792480000178,666.4792480000178,666.4792480000178,666.5123453999986,667.4780463000061,667.4780463000061,x,1,0.7206388999475166,None,400trials,001,2023-10-17_19h33.01.535,sequentialearning,2023.1.3,60.10995313077554,
-50,x,,,,,10,0,40,0,668.2438270000275,669.2435077999835,669.2435077999835,669.2435077999835,669.2435077999835,669.2764061000198,670.2420465999749,670.2420465999749,x,1,0.6178704000194557,None,400trials,001,2023-10-17_19h33.01.535,sequentialearning,2023.1.3,60.10995313077554,
50,c,,,,,10,1,41,2,670.9080723000225,671.9074823000119,671.9074823000119,671.9074823000119,671.9074823000119,671.940936799976,672.9067632000078,672.9067632000078,c,1,0.39449339994462207,None,400trials,001,2023-10-17_19h33.01.535,sequentialearning,2023.1.3,60.10995313077554,
-150,z,,,,,10,2,42,3,673.3384916000068,674.3382358999806,674.3382358999806,674.3382358999806,674.3382358999806,674.371828400006,675.3373645999818,675.3373645999818,z,1,0.5701857000240125,None,400trials,001,2023-10-17_19h33.01.535,sequentialearning,2023.1.3,60.10995313077554,
150,v,,,,,10,3,43,1,675.9696244000224,676.9700328999897,676.9700328999897,676.9700328999897,676.9700328999897,677.0025627000141,677.9685111999861,677.9685111999861,v,1,0.6954090999788605,None,400trials,001,2023-10-17_19h33.01.535,sequentialearning,2023.1.3,60.10995313077554,
50,c,,,,,11,0,44,2,678.7002982000122,679.7001051999978,679.7001051999978,679.7001051999978,679.7001051999978,679.7330763000064,680.7157526999945,680.7157526999945,c,1,0.7720784000121057,None,400trials,001,2023-10-17_19h33.01.535,sequentialearning,2023.1.3,60.10995313077554,
50,c,,,,,11,1,45,2,681.5476300999871,682.5472909000237,682.5472909000237,682.5472909000237,682.5472909000237,682.5804878000054,683.5464544999995,683.5464544999995,c,1,0.6493348000221886,None,400trials,001,2023-10-17_19h33.01.535,sequentialearning,2023.1.3,60.10995313077554,
-50,x,,,,,11,2,46,0,684.2451298999949,685.2443053000025,685.2443053000025,685.2443053000025,685.2443053000025,685.2776912000263,686.2436769999913,686.2436769999913,x,1,0.5612709000124596,None,400trials,001,2023-10-17_19h33.01.535,sequentialearning,2023.1.3,60.10995313077554,
50,c,,,,,11,3,47,2,686.8428370999754,687.8424643999897,687.8424643999897,687.8424643999897,687.8424643999897,687.875066299981,688.8581798999803,688.8581798999803,c,1,0.45797579997451976,None,400trials,001,2023-10-17_19h33.01.535,sequentialearning,2023.1.3,60.10995313077554,
-150,z,,,,,12,0,48,3,689.3574020999949,690.356860800006,690.356860800006,690.356860800006,690.356860800006,690.3904220000259,691.3560178999905,691.3560178999905,z,1,0.4005686999880709,None,400trials,001,2023-10-17_19h33.01.535,sequentialearning,2023.1.3,60.10995313077554,
-150,z,,,,,12,1,49,3,691.8213212999981,692.8212874999736,692.8212874999736,692.8212874999736,692.8212874999736,692.8543218999985,693.8203719999874,693.8203719999874,z,1,0.6131362000014633,None,400trials,001,2023-10-17_19h33.01.535,sequentialearning,2023.1.3,60.10995313077554,
-50,x,,,,,12,2,50,0,694.4854111999739,695.4852149999933,695.4852149999933,695.4852149999933,695.4852149999933,695.5185771000106,696.4844831000082,696.4844831000082,x,1,0.5179364999639802,None,400trials,001,2023-10-17_19h33.01.535,sequentialearning,2023.1.3,60.10995313077554,
150,v,,,,,12,3,51,1,697.0503529999987,698.0333792999736,698.0333792999736,698.0333792999736,698.0333792999736,698.0503645999706,699.0480066000018,699.0480066000018,v,1,0.5634834000375122,None,400trials,001,2023-10-17_19h33.01.535,sequentialearning,2023.1.3,60.10995313077554,
-150,z,,,,,13,0,52,3,699.6473652999848,700.6469002999947,700.6469002999947,700.6469002999947,700.6469002999947,700.6800152999931,701.6458385000005,701.6458385000005,z,1,0.45152499998221174,None,400trials,001,2023-10-17_19h33.01.535,sequentialearning,2023.1.3,60.10995313077554,
-150,z,,,,,13,1,53,3,702.1448634000262,703.1445378999924,703.1445378999924,703.1445378999924,703.1445378999924,703.177586100006,704.1431685999851,704.1431685999851,z,1,0.5136257000267506,None,400trials,001,2023-10-17_19h33.01.535,sequentialearning,2023.1.3,60.10995313077554,
50,c,,,,,13,2,54,2,704.6950407000259,705.7090622999822,705.7090622999822,705.7090622999822,705.7090622999822,705.7090622999822,706.7247603000142,706.7247603000142,c,1,0.39876140002161264,None,400trials,001,2023-10-17_19h33.01.535,sequentialearning,2023.1.3,60.10995313077554,
-50,x,,,,,13,3,55,0,707.1414129000041,708.156670299999,708.156670299999,708.156670299999,708.156670299999,708.156670299999,709.1557591999881,709.1557591999881,z,0,0.4924806000199169,None,400trials,001,2023-10-17_19h33.01.535,sequentialearning,2023.1.3,60.10995313077554,
150,v,,,,,14,0,56,1,709.6878961999901,710.687977500027,710.687977500027,710.687977500027,710.687977500027,710.7211599000148,711.6867121999967,711.6867121999967,v,1,0.5726451000082307,None,400trials,001,2023-10-17_19h33.01.535,sequentialearning,2023.1.3,60.10995313077554,
50,c,,,,,14,1,57,2,712.3046059000189,713.3188900999958,713.3188900999958,713.3188900999958,713.3188900999958,713.3188900999958,714.3176498999819,714.3176498999819,c,1,0.44422219996340573,None,400trials,001,2023-10-17_19h33.01.535,sequentialearning,2023.1.3,60.10995313077554,
150,v,,,,,14,2,58,1,714.816565199988,715.8162113999715,715.8162113999715,715.8162113999715,715.8162113999715,715.8495854000212,716.8323442999972,716.8323442999972,v,1,0.6645811999915168,None,400trials,001,2023-10-17_19h33.01.535,sequentialearning,2023.1.3,60.10995313077554,
150,v,,,,,14,3,59,1,717.5305371999857,718.5304400000023,718.5304400000023,718.5304400000023,718.5304400000023,718.5635070999851,719.5296024000272,719.5296024000272,v,1,0.40197589999297634,None,400trials,001,2023-10-17_19h33.01.535,sequentialearning,2023.1.3,60.10995313077554,
-50,x,,,,,15,0,60,0,719.9949653000222,720.9946986999712,720.9946986999712,720.9946986999712,720.9946986999712,721.0280105000129,721.994057599979,721.994057599979,x,1,0.8431977999862283,None,400trials,001,2023-10-17_19h33.01.535,sequentialearning,2023.1.3,60.10995313077554,
150,v,,,,,15,1,61,1,722.8780154000269,723.891978700005,723.891978700005,723.891978700005,723.891978700005,723.891978700005,724.9077912999783,724.9077912999783,v,1,0.7929701999528334,None,400trials,001,2023-10-17_19h33.01.535,sequentialearning,2023.1.3,60.10995313077554,
150,v,,,,,15,2,62,1,725.7401778000058,726.739534399996,726.739534399996,726.739534399996,726.739534399996,726.7727675000206,727.7386286000255,727.7386286000255,v,1,0.4581301999860443,None,400trials,001,2023-10-17_19h33.01.535,sequentialearning,2023.1.3,60.10995313077554,
-50,x,,,,,15,3,63,0,728.2372114000027,729.2371436000103,729.2371436000103,729.2371436000103,729.2371436000103,729.2703306999756,730.2360996999778,730.2360996999778,x,1,0.49221350002335384,None,400trials,001,2023-10-17_19h33.01.535,sequentialearning,2023.1.3,60.10995313077554,
150,v,,,,,16,0,64,1,730.7684878999717,731.7680031000054,731.7680031000054,731.7680031000054,731.7680031000054,731.8011385999853,732.767251799989,732.767251799989,v,1,0.4269988999585621,None,400trials,001,2023-10-17_19h33.01.535,sequentialearning,2023.1.3,60.10995313077554,
150,v,,,,,16,1,65,1,733.2185656999936,734.2322716999915,734.2322716999915,734.2322716999915,734.2322716999915,734.2322716999915,735.23156320001,735.23156320001,v,1,0.5289873000001535,None,400trials,001,2023-10-17_19h33.01.535,sequentialearning,2023.1.3,60.10995313077554,
-150,z,,,,,16,2,66,3,735.797293599986,736.7965809999732,736.7965809999732,736.7965809999732,736.7965809999732,736.8298636000254,737.7955969999894,737.7955969999894,z,1,0.46858839999185875,None,400trials,001,2023-10-17_19h33.01.535,sequentialearning,2023.1.3,60.10995313077554,
-150,z,,,,,16,3,67,3,738.3278717999929,739.3277450000169,739.3277450000169,739.3277450000169,739.3277450000169,739.3609322999837,740.3269007999916,740.3269007999916,z,1,0.5246015000157058,None,400trials,001,2023-10-17_19h33.01.535,sequentialearning,2023.1.3,60.10995313077554,
150,v,,,,,17,0,68,1,740.8921213999856,741.8918637000024,741.8918637000024,741.8918637000024,741.8918637000024,741.9251693999977,742.8910387000069,742.8910387000069,v,1,0.5943434000364505,None,400trials,001,2023-10-17_19h33.01.535,sequentialearning,2023.1.3,60.10995313077554,
150,v,,,,,17,1,69,1,743.5229734000168,744.5226527000195,744.5226527000195,744.5226527000195,744.5226527000195,744.5561985999811,745.521796200017,745.521796200017,v,1,0.4848943999968469,None,400trials,001,2023-10-17_19h33.01.535,sequentialearning,2023.1.3,60.10995313077554,
-150,z,,,,,17,2,70,3,746.0705711999908,747.0702578999917,747.0702578999917,747.0702578999917,747.0702578999917,747.103471999988,748.0693196000066,748.0693196000066,z,1,0.4778651999658905,None,400trials,001,2023-10-17_19h33.01.535,sequentialearning,2023.1.3,60.10995313077554,
150,v,,,,,17,3,71,1,748.5877237999812,749.601346099982,749.601346099982,749.601346099982,749.601346099982,749.601346099982,750.600505999988,750.600505999988,v,1,0.4225385999889113,None,400trials,001,2023-10-17_19h33.01.535,sequentialearning,2023.1.3,60.10995313077554,
150,v,,,,,18,0,72,1,751.0665511999978,752.0655582000036,752.0655582000036,752.0655582000036,752.0655582000036,752.0991505000275,753.0814723999938,753.0814723999938,v,1,0.48579679999966174,None,400trials,001,2023-10-17_19h33.01.535,sequentialearning,2023.1.3,60.10995313077554,
-150,z,,,,,18,1,73,3,753.6135001999792,754.6135550999898,754.6135550999898,754.6135550999898,754.6135550999898,754.6465424000053,755.6123838999774,755.6123838999774,z,1,0.8904000000329688,None,400trials,001,2023-10-17_19h33.01.535,sequentialearning,2023.1.3,60.10995313077554,
50,c,,,,,18,2,74,2,756.5443841000088,757.5438247999991,757.5438247999991,757.5438247999991,757.5438247999991,757.5770494000171,758.5429332000203,758.5429332000203,v,0,0.5015651999856345,None,400trials,001,2023-10-17_19h33.01.535,sequentialearning,2023.1.3,60.10995313077554,
50,c,,,,,18,3,75,2,759.1084161999752,760.1087347000139,760.1087347000139,760.1087347000139,760.1087347000139,760.14162509999,761.1238256000215,761.1238256000215,c,1,0.7653306999709457,None,400trials,001,2023-10-17_19h33.01.535,sequentialearning,2023.1.3,60.10995313077554,
150,v,,,,,19,0,76,1,761.9229379000026,762.9223638999974,762.9223638999974,762.9223638999974,762.9223638999974,762.9553577000042,763.9214561000117,763.9214561000117,v,1,0.45389619999332353,None,400trials,001,2023-10-17_19h33.01.535,sequentialearning,2023.1.3,60.10995313077554,
-150,z,,,,,19,1,77,3,764.4201580000226,765.4202559000114,765.4202559000114,765.4202559000114,765.4202559000114,765.4531171999988,766.4203452999936,766.4203452999936,z,1,0.5628711999743246,None,400trials,001,2023-10-17_19h33.01.535,sequentialearning,2023.1.3,60.10995313077554,
-50,x,,,,,19,2,78,0,767.0177822000114,768.017287500028,768.017287500028,768.017287500028,768.017287500028,768.0505601000041,769.0164477999788,769.0164477999788,x,1,0.6692677999963053,None,400trials,001,2023-10-17_19h33.01.535,sequentialearning,2023.1.3,60.10995313077554,
-150,z,,,,,19,3,79,3,769.7484411000041,770.7482125000097,770.7482125000097,770.7482125000097,770.7482125000097,770.7812236999744,771.7478768000146,771.7478768000146,z,1,0.4884234999772161,None,400trials,001,2023-10-17_19h33.01.535,sequentialearning,2023.1.3,60.10995313077554,
150,v,,,,,20,0,80,1,772.2800771999755,773.2790613999823,773.2790613999823,773.2790613999823,773.2790613999823,773.312269099988,774.2785067000077,774.2785067000077,v,1,0.5161966999876313,None,400trials,001,2023-10-17_19h33.01.535,sequentialearning,2023.1.3,60.10995313077554,
150,v,,,,,20,1,81,1,774.8439577000099,775.8436864999821,775.8436864999821,775.8436864999821,775.8436864999821,775.8753009000211,776.8424226000207,776.8424226000207,v,1,0.8027366999885999,None,400trials,001,2023-10-17_19h33.01.535,sequentialearning,2023.1.3,60.10995313077554,
-50,x,,,,,20,2,82,0,777.7076697999728,778.7072324000183,778.7072324000183,778.7072324000183,778.7072324000183,778.7409140000236,779.70680059999,779.70680059999,x,1,1.1002154999878258,None,400trials,001,2023-10-17_19h33.01.535,sequentialearning,2023.1.3,60.10995313077554,
-150,z,,,,,20,3,83,3,780.8713235000032,781.8712475000066,781.8712475000066,781.8712475000066,781.8712475000066,781.9045263999724,782.8704663999961,782.8704663999961,z,1,0.5864481999888085,None,400trials,001,2023-10-17_19h33.01.535,sequentialearning,2023.1.3,60.10995313077554,
150,v,,,,,21,0,84,1,783.5025029000244,784.5017842000234,784.5017842000234,784.5017842000234,784.5017842000234,784.5355146999937,785.5177450000192,785.5177450000192,v,1,0.42335840000305325,None,400trials,001,2023-10-17_19h33.01.535,sequentialearning,2023.1.3,60.10995313077554,
-150,z,,,,,21,1,85,3,785.9841516999877,786.983137400006,786.983137400006,786.983137400006,786.983137400006,787.016455999983,787.9819562999764,787.9819562999764,z,1,0.48557780002010986,None,400trials,001,2023-10-17_19h33.01.535,sequentialearning,2023.1.3,60.10995313077554,
-150,z,,,,,21,2,86,3,788.5143905999721,789.5141810000059,789.5141810000059,789.5141810000059,789.5141810000059,789.54709800001,790.5129023999907,790.5129023999907,z,1,0.8266404999885708,None,400trials,001,2023-10-17_19h33.01.535,sequentialearning,2023.1.3,60.10995313077554,
50,c,,,,,21,3,87,2,791.3782549999887,792.3778695000219,792.3778695000219,792.3778695000219,792.3778695000219,792.4115435000276,793.376574199996,793.376574199996,c,1,0.8962856999714859,None,400trials,001,2023-10-17_19h33.01.535,sequentialearning,2023.1.3,60.10995313077554,
150,v,,,,,22,0,88,1,794.3094708999852,795.30848409998,795.30848409998,795.30848409998,795.30848409998,795.3418709000107,796.3075963999727,796.3075963999727,v,1,0.528436699998565,None,400trials,001,2023-10-17_19h33.01.535,sequentialearning,2023.1.3,60.10995313077554,
50,c,,,,,22,1,89,2,796.8733760999748,797.8725755999913,797.8725755999913,797.8725755999913,797.8725755999913,797.9063710999908,798.8717247999739,798.8717247999739,c,1,0.46755649999249727,None,400trials,001,2023-10-17_19h33.01.535,sequentialearning,2023.1.3,60.10995313077554,
-50,x,,,,,22,2,90,0,799.4039499000064,800.4038708999869,800.4038708999869,800.4038708999869,800.4038708999869,800.437396000023,801.4027647000039,801.4027647000039,x,1,0.7109658000408672,None,400trials,001,2023-10-17_19h33.01.535,sequentialearning,2023.1.3,60.10995313077554,
150,v,,,,,22,3,91,1,802.1539952000021,803.167832200008,803.167832200008,803.167832200008,803.167832200008,803.167832200008,804.1665599999833,804.1665599999833,v,1,0.48290979996090755,None,400trials,001,2023-10-17_19h33.01.535,sequentialearning,2023.1.3,60.10995313077554,
-50,x,,,,,23,0,92,0,804.6994853999931,805.699011699995,805.699011699995,805.699011699995,805.699011699995,805.7322294000187,806.6977695000242,806.6977695000242,x,1,0.4118259000242688,None,400trials,001,2023-10-17_19h33.01.535,sequentialearning,2023.1.3,60.10995313077554,
150,v,,,,,23,1,93,1,807.1634806999937,808.1631076000049,808.1631076000049,808.1631076000049,808.1631076000049,808.1966931999777,809.1623644999927,809.1623644999927,v,1,0.6420975999790244,None,400trials,001,2023-10-17_19h33.01.535,sequentialearning,2023.1.3,60.10995313077554,
50,c,,,,,23,2,94,2,809.8609565999941,810.8607125999988,810.8607125999988,810.8607125999988,810.8607125999988,810.8937988000107,811.8602072999929,811.8602072999929,c,1,0.5682873000041582,None,400trials,001,2023-10-17_19h33.01.535,sequentialearning,2023.1.3,60.10995313077554,
-50,x,,,,,23,3,95,0,812.4917802999844,813.4916859000223,813.4916859000223,813.4916859000223,813.4916859000223,813.524605499988,814.5072673999821,814.5072673999821,c,0,0.7107224999926984,None,400trials,001,2023-10-17_19h33.01.535,sequentialearning,2023.1.3,60.10995313077554,
-50,x,,,,,24,0,96,0,815.2581364000216,816.2728118000086,816.2728118000086,816.2728118000086,816.2728118000086,816.2728118000086,817.2712079000194,817.2712079000194,x,1,0.4158315000240691,None,400trials,001,2023-10-17_19h33.01.535,sequentialearning,2023.1.3,60.10995313077554,
-50,x,,,,,24,1,97,0,817.7368979000021,818.7363860000041,818.7363860000041,818.7363860000041,818.7363860000041,818.7696777000092,819.7355580999865,819.7355580999865,x,1,0.5325627999845892,None,400trials,001,2023-10-17_19h33.01.535,sequentialearning,2023.1.3,60.10995313077554,
50,c,,,,,24,2,98,2,820.3015348999761,821.3009542999789,821.3009542999789,821.3009542999789,821.3009542999789,821.3340202000109,822.3165369000053,822.3165369000053,c,1,0.496660599950701,None,400trials,001,2023-10-17_19h33.01.535,sequentialearning,2023.1.3,60.10995313077554,
-150,z,,,,,24,3,99,3,822.848832299991,823.8487342000008,823.8487342000008,823.8487342000008,823.8487342000008,823.8816780999769,824.8474680000218,824.8474680000218,z,1,1.8076363000436686,None,400trials,001,2023-10-17_19h33.01.535,sequentialearning,2023.1.3,60.10995313077554,
-50,x,,,,,25,0,100,0,826.711743300024,827.6955398999853,827.6955398999853,827.6955398999853,827.6955398999853,827.7122621000162,828.710688000021,828.710688000021,x,1,0.5022825000341982,None,400trials,001,2023-10-17_19h33.01.535,sequentialearning,2023.1.3,60.10995313077554,
150,v,,,,,25,1,101,1,829.261919600016,830.2757760999957,830.2757760999957,830.2757760999957,830.2757760999957,830.2757760999957,831.2750746000092,831.2750746000092,v,1,0.4604222999769263,None,400trials,001,2023-10-17_19h33.01.535,sequentialearning,2023.1.3,60.10995313077554,
-50,x,,,,,25,2,102,0,831.7737235000241,832.7736010000226,832.7736010000226,832.7736010000226,832.7736010000226,832.8067611000151,833.7724372000084,833.7724372000084,x,1,0.4402694999589585,None,400trials,001,2023-10-17_19h33.01.535,sequentialearning,2023.1.3,60.10995313077554,
-50,x,,,,,25,3,103,0,834.2571032000124,835.271335700003,835.271335700003,835.271335700003,835.271335700003,835.271335700003,836.2702893000096,836.2702893000096,x,1,0.4717670999816619,None,400trials,001,2023-10-17_19h33.01.535,sequentialearning,2023.1.3,60.10995313077554,
-50,x,,,,,26,0,104,0,836.7857538000098,837.7855374999926,837.7855374999926,837.7855374999926,837.7855374999926,837.8186816999805,838.7845950999763,838.7845950999763,x,1,0.5431169999646954,None,400trials,001,2023-10-17_19h33.01.535,sequentialearning,2023.1.3,60.10995313077554,
150,v,,,,,26,1,105,1,839.3690552000189,840.3827181999804,840.3827181999804,840.3827181999804,840.3827181999804,840.3827181999804,841.3822228999925,841.3822228999925,v,1,0.8828254999825731,None,400trials,001,2023-10-17_19h33.01.535,sequentialearning,2023.1.3,60.10995313077554,
-50,x,,,,,26,2,106,0,842.3139032999752,843.3136212999816,843.3136212999816,843.3136212999816,843.3136212999816,843.3468401000137,844.3293069999781,844.3293069999781,x,1,0.6840210999944247,None,400trials,001,2023-10-17_19h33.01.535,sequentialearning,2023.1.3,60.10995313077554,
-50,x,,,,,26,3,107,0,845.0637801000266,846.0776607000153,846.0776607000153,846.0776607000153,846.0776607000153,846.0776607000153,847.0771456999937,847.0771456999937,x,1,0.4602545999805443,None,400trials,001,2023-10-17_19h33.01.535,sequentialearning,2023.1.3,60.10995313077554,
150,v,,,,,27,0,108,1,847.5760330000194,848.5752647999907,848.5752647999907,848.5752647999907,848.5752647999907,848.6086220999714,849.5743910999736,849.5743910999736,v,1,0.5217434000223875,None,400trials,001,2023-10-17_19h33.01.535,sequentialearning,2023.1.3,60.10995313077554,
150,v,,,,,27,1,109,1,850.1257442000206,851.1398323000176,851.1398323000176,851.1398323000176,851.1398323000176,851.1398323000176,852.1387343999813,852.1387343999813,v,1,0.5013314000098035,None,400trials,001,2023-10-17_19h33.01.535,sequentialearning,2023.1.3,60.10995313077554,
-150,z,,,,,27,2,110,3,852.7046598999877,853.7038757000118,853.7038757000118,853.7038757000118,853.7038757000118,853.7371169999824,854.7192036000197,854.7192036000197,z,1,0.6437807999900542,None,400trials,001,2023-10-17_19h33.01.535,sequentialearning,2023.1.3,60.10995313077554,
-150,z,,,,,27,3,111,3,855.4183239000267,856.4179048999795,856.4179048999795,856.4179048999795,856.4179048999795,856.4513859999715,857.4173006999772,857.4173006999772,z,1,0.5008865999989212,None,400trials,001,2023-10-17_19h33.01.535,sequentialearning,2023.1.3,60.10995313077554,
-150,z,,,,,28,0,112,3,857.9683378000045,858.9822487999918,858.9822487999918,858.9822487999918,858.9822487999918,858.9822487999918,859.9811886000098,859.9811886000098,z,1,0.5439923999947496,None,400trials,001,2023-10-17_19h33.01.535,sequentialearning,2023.1.3,60.10995313077554,
50,c,,,,,28,1,113,2,860.5660969999735,861.5801359000034,861.5801359000034,861.5801359000034,861.5801359000034,861.5801359000034,862.5786702000187,862.5786702000187,c,1,0.4450852000154555,None,400trials,001,2023-10-17_19h33.01.535,sequentialearning,2023.1.3,60.10995313077554,
-150,z,,,,,28,2,114,3,863.0779197000084,864.0775624000235,864.0775624000235,864.0775624000235,864.0775624000235,864.1107904000091,865.0765087999753,865.0765087999753,z,1,0.4557795000146143,None,400trials,001,2023-10-17_19h33.01.535,sequentialearning,2023.1.3,60.10995313077554,
150,v,,,,,28,3,115,1,865.5758452999871,866.5751139000058,866.5751139000058,866.5751139000058,866.5751139000058,866.6093071000068,867.5745280000265,867.5745280000265,v,1,0.5910097999731079,None,400trials,001,2023-10-17_19h33.01.535,sequentialearning,2023.1.3,60.10995313077554,
-150,z,,,,,29,0,116,3,868.2070827999851,869.2067041000118,869.2067041000118,869.2067041000118,869.2067041000118,869.2392478000256,870.2051081000245,870.2051081000245,z,1,0.48292869998840615,None,400trials,001,2023-10-17_19h33.01.535,sequentialearning,2023.1.3,60.10995313077554,
-150,z,,,,,29,1,117,3,870.7374051000224,871.7369976000045,871.7369976000045,871.7369976000045,871.7369976000045,871.770505100023,872.7360580000095,872.7360580000095,z,1,0.4730565999634564,None,400trials,001,2023-10-17_19h33.01.535,sequentialearning,2023.1.3,60.10995313077554,
-150,z,,,,,29,2,118,3,873.254001000023,874.2681359000271,874.2681359000271,874.2681359000271,874.2681359000271,874.2681359000271,875.284007499984,875.284007499984,z,1,0.5118208000203595,None,400trials,001,2023-10-17_19h33.01.535,sequentialearning,2023.1.3,60.10995313077554,
-50,x,,,,,29,3,119,0,875.835039699974,876.8493103000219,876.8493103000219,876.8493103000219,876.8493103000219,876.8493103000219,877.848347000021,877.848347000021,x,1,0.7623258999665268,None,400trials,001,2023-10-17_19h33.01.535,sequentialearning,2023.1.3,60.10995313077554,
50,c,,,,,30,0,120,2,878.6470552000101,879.6463305000216,879.6463305000216,879.6463305000216,879.6463305000216,879.6796366000199,880.6452684000251,880.6452684000251,c,1,0.5185557000222616,None,400trials,001,2023-10-17_19h33.01.535,sequentialearning,2023.1.3,60.10995313077554,
50,c,,,,,30,1,121,2,881.2108467000071,882.2109348999802,882.2109348999802,882.2109348999802,882.2109348999802,882.2441353999893,883.2265194000211,883.2265194000211,c,1,0.5030705000390299,None,400trials,001,2023-10-17_19h33.01.535,sequentialearning,2023.1.3,60.10995313077554,
-150,z,,,,,30,2,122,3,883.7921654999955,884.7914902999764,884.7914902999764,884.7914902999764,884.7914902999764,884.8248276999802,885.7902696999954,885.7902696999954,z,1,0.4770719999796711,None,400trials,001,2023-10-17_19h33.01.535,sequentialearning,2023.1.3,60.10995313077554,
-150,z,,,,,30,3,123,3,886.3228767000255,887.3223548000096,887.3223548000096,887.3223548000096,887.3223548000096,887.355776100012,888.321707999974,888.321707999974,z,1,0.5571540000382811,None,400trials,001,2023-10-17_19h33.01.535,sequentialearning,2023.1.3,60.10995313077554,
50,c,,,,,31,0,124,2,888.9203501999727,889.920539600018,889.920539600018,889.920539600018,889.920539600018,889.9537669999991,890.918898999982,890.918898999982,c,1,0.4840449999901466,None,400trials,001,2023-10-17_19h33.01.535,sequentialearning,2023.1.3,60.10995313077554,
-150,z,,,,,31,1,125,3,891.4512971999939,892.450642700016,892.450642700016,892.450642700016,892.450642700016,892.484363000025,893.4668044000282,893.4668044000282,z,1,0.6068650999804959,None,400trials,001,2023-10-17_19h33.01.535,sequentialearning,2023.1.3,60.10995313077554,
50,c,,,,,31,2,126,2,894.1321389999939,895.1318058000179,895.1318058000179,895.1318058000179,895.1318058000179,895.1650079999818,896.1309367999784,896.1309367999784,c,1,0.39670029998524114,None,400trials,001,2023-10-17_19h33.01.535,sequentialearning,2023.1.3,60.10995313077554,
-150,z,,,,,31,3,127,3,896.5633922999841,897.5630877999938,897.5630877999938,897.5630877999938,897.5630877999938,897.5965318999952,898.5619097999879,898.5619097999879,z,1,0.42128869995940477,None,400trials,001,2023-10-17_19h33.01.535,sequentialearning,2023.1.3,60.10995313077554,
-150,z,,,,,32,0,128,3,899.0276147000259,900.0275630999822,900.0275630999822,900.0275630999822,900.0275630999822,900.0604547000257,901.0262849999708,901.0262849999708,z,1,0.6958152999868616,None,400trials,001,2023-10-17_19h33.01.535,sequentialearning,2023.1.3,60.10995313077554,
150,v,,,,,32,1,129,1,901.7587258999702,902.75810430001,902.75810430001,902.75810430001,902.75810430001,902.7913362000254,903.7573307999992,903.7573307999992,v,1,0.5094971000216901,None,400trials,001,2023-10-17_19h33.01.535,sequentialearning,2023.1.3,60.10995313077554,
150,v,,,,,32,2,130,1,904.3230083999806,905.3222885999712,905.3222885999712,905.3222885999712,905.3222885999712,905.3556502999854,906.3213010000181,906.3213010000181,v,1,0.509648599952925,None,400trials,001,2023-10-17_19h33.01.535,sequentialearning,2023.1.3,60.10995313077554,
-50,x,,,,,32,3,131,0,906.8878638999886,907.8866544999764,907.8866544999764,907.8866544999764,907.8866544999764,907.9200536999851,908.8857148999814,908.8857148999814,x,1,0.5249547000275925,None,400trials,001,2023-10-17_19h33.01.535,sequentialearning,2023.1.3,60.10995313077554,
50,c,,,,,33,0,132,2,909.4519850999932,910.4507467999938,910.4507467999938,910.4507467999938,910.4507467999938,910.4839216999826,911.4498471000115,911.4498471000115,c,1,0.4473481000168249,None,400trials,001,2023-10-17_19h33.01.535,sequentialearning,2023.1.3,60.10995313077554,
-50,x,,,,,33,1,133,0,911.9500118999858,912.9486735999817,912.9486735999817,912.9486735999817,912.9486735999817,912.9819354999927,913.9473929000087,913.9473929000087,z,0,0.5175263999844901,None,400trials,001,2023-10-17_19h33.01.535,sequentialearning,2023.1.3,60.10995313077554,
-150,z,,,,,33,2,134,3,914.5137800999801,915.5129306999734,915.5129306999734,915.5129306999734,915.5129306999734,915.5461067999713,916.5119491000078,916.5119491000078,z,1,0.5708234999910928,None,400trials,001,2023-10-17_19h33.01.535,sequentialearning,2023.1.3,60.10995313077554,
50,c,,,,,33,3,135,2,917.1445818999782,918.1437345999875,918.1437345999875,918.1437345999875,918.1437345999875,918.1771513000131,919.1426078000222,919.1426078000222,c,1,0.8478965000249445,None,400trials,001,2023-10-17_19h33.01.535,sequentialearning,2023.1.3,60.10995313077554,
-50,x,,,,,34,0,136,0,920.042126299988,921.0407944999752,921.0407944999752,921.0407944999752,921.0407944999752,921.0740148000186,922.0402208999731,922.0402208999731,x,1,0.6950434999889694,None,400trials,001,2023-10-17_19h33.01.535,sequentialearning,2023.1.3,60.10995313077554,
50,c,,,,,34,1,137,2,922.7727758000256,923.7717374999775,923.7717374999775,923.7717374999775,923.7717374999775,923.8049133999739,924.7709390000091,924.7709390000091,c,1,0.503083500021603,None,400trials,001,2023-10-17_19h33.01.535,sequentialearning,2023.1.3,60.10995313077554,
50,c,,,,,34,2,138,2,925.3367219999782,926.3362221000134,926.3362221000134,926.3362221000134,926.3362221000134,926.3694503000006,927.3517408000189,927.3517408000189,c,1,1.0311441000085324,None,400trials,001,2023-10-17_19h33.01.535,sequentialearning,2023.1.3,60.10995313077554,
-50,x,,,,,34,3,139,0,928.4176711000036,929.4167044999776,929.4167044999776,929.4167044999776,929.4167044999776,929.4497853000066,930.4157952999813,930.4157952999813,x,1,0.4583713000174612,None,400trials,001,2023-10-17_19h33.01.535,sequentialearning,2023.1.3,60.10995313077554,
150,v,,,,,35,0,140,1,930.9148594000144,931.9140033000149,931.9140033000149,931.9140033000149,931.9140033000149,931.9477561999811,932.9135432000039,932.9135432000039,v,1,0.3934737999807112,None,400trials,001,2023-10-17_19h33.01.535,sequentialearning,2023.1.3,60.10995313077554,
-50,x,,,,,35,1,141,0,933.3462275000056,934.3450626999838,934.3450626999838,934.3450626999838,934.3450626999838,934.3787486000219,935.3444184000255,935.3444184000255,x,1,0.5309764000121504,None,400trials,001,2023-10-17_19h33.01.535,sequentialearning,2023.1.3,60.10995313077554,
150,v,,,,,35,2,142,1,935.91044279997,936.9097351999953,936.9097351999953,936.9097351999953,936.9097351999953,936.9428414999857,937.908838399977,937.908838399977,v,1,0.3953435000148602,None,400trials,001,2023-10-17_19h33.01.535,sequentialearning,2023.1.3,60.10995313077554,
50,c,,,,,35,3,143,2,938.3414640999981,939.3407605999964,939.3407605999964,939.3407605999964,939.3407605999964,939.373752399988,940.3563131000265,940.3563131000265,c,1,1.5789494999917224,None,400trials,001,2023-10-17_19h33.01.535,sequentialearning,2023.1.3,60.10995313077554,
-150,z,,,,,36,0,144,3,941.9877505999757,942.9870678000152,942.9870678000152,942.9870678000152,942.9870678000152,943.0203353000106,944.0023400000064,944.0023400000064,z,1,0.7170118000358343,None,400trials,001,2023-10-17_19h33.01.535,sequentialearning,2023.1.3,60.10995313077554,
-50,x,,,,,36,1,145,0,944.7687059000018,945.7677352000028,945.7677352000028,945.7677352000028,945.7677352000028,945.8014088000054,946.7670394000015,946.7670394000015,x,1,0.42760899994755164,None,400trials,001,2023-10-17_19h33.01.535,sequentialearning,2023.1.3,60.10995313077554,
50,c,,,,,36,2,146,2,947.2331464000163,948.2329253000207,948.2329253000207,948.2329253000207,948.2329253000207,948.2653879999998,949.231554500002,949.231554500002,c,1,0.4792392999515869,None,400trials,001,2023-10-17_19h33.01.535,sequentialearning,2023.1.3,60.10995313077554,
50,c,,,,,36,3,147,2,949.7644222999807,950.763366899977,950.763366899977,950.763366899977,950.763366899977,950.7968575999839,951.7626942999777,951.7626942999777,c,1,0.5117724000010639,None,400trials,001,2023-10-17_19h33.01.535,sequentialearning,2023.1.3,60.10995313077554,
-50,x,,,,,37,0,148,0,952.3283656000276,953.3276798999868,953.3276798999868,953.3276798999868,953.3276798999868,953.3607345999917,954.3269107000087,954.3269107000087,x,1,0.709649599972181,None,400trials,001,2023-10-17_19h33.01.535,sequentialearning,2023.1.3,60.10995313077554,
-150,z,,,,,37,1,149,3,955.0922708999715,956.0913468999788,956.0913468999788,956.0913468999788,956.0913468999788,956.1246869000024,957.0918421000242,957.0918421000242,z,1,0.49377450003521517,None,400trials,001,2023-10-17_19h33.01.535,sequentialearning,2023.1.3,60.10995313077554,
-50,x,,,,,37,2,150,0,957.6236391999992,958.6223371999804,958.6223371999804,958.6223371999804,958.6223371999804,958.6555409000139,959.6217399999732,959.6217399999732,x,1,0.6681240000179969,None,400trials,001,2023-10-17_19h33.01.535,sequentialearning,2023.1.3,60.10995313077554,
150,v,,,,,37,3,151,1,960.3388641999918,961.3367192000151,961.3367192000151,961.3367192000151,961.3367192000151,961.3696370000253,962.3521242000279,962.3521242000279,v,1,0.5443393999594264,None,400trials,001,2023-10-17_19h33.01.535,sequentialearning,2023.1.3,60.10995313077554,
150,v,,,,,38,0,152,1,962.9514776999713,963.951067499991,963.951067499991,963.951067499991,963.951067499991,963.9843128999928,964.966442200006,964.966442200006,v,1,0.521889999974519,None,400trials,001,2023-10-17_19h33.01.535,sequentialearning,2023.1.3,60.10995313077554,
-150,z,,,,,38,1,153,3,965.5329220999847,966.5315983999753,966.5315983999753,966.5315983999753,966.5315983999753,966.5650044999784,967.531008400023,967.531008400023,z,1,0.4501622000243515,None,400trials,001,2023-10-17_19h33.01.535,sequentialearning,2023.1.3,60.10995313077554,
50,c,,,,,38,2,154,2,968.0304521999788,969.0301169999875,969.0301169999875,969.0301169999875,969.0301169999875,969.062556400022,970.0285672000027,970.0285672000027,c,1,0.3042130999965593,None,400trials,001,2023-10-17_19h33.01.535,sequentialearning,2023.1.3,60.10995313077554,
150,v,,,,,38,3,155,1,970.3948520999984,971.3937253999757,971.3937253999757,971.3937253999757,971.3937253999757,971.4270739000058,972.3923042999813,972.3923042999813,v,1,0.5289855999872088,None,400trials,001,2023-10-17_19h33.01.535,sequentialearning,2023.1.3,60.10995313077554,
150,v,,,,,39,0,156,1,972.9590616999776,973.9580119000166,973.9580119000166,973.9580119000166,973.9580119000166,973.9913579999702,974.9570511999773,974.9570511999773,v,1,0.4926413000212051,None,400trials,001,2023-10-17_19h33.01.535,sequentialearning,2023.1.3,60.10995313077554,
150,v,,,,,39,1,157,1,975.4899982999777,976.4882471999736,976.4882471999736,976.4882471999736,976.4882471999736,976.5063271999825,977.505095999979,977.505095999979,v,1,0.9472607999923639,None,400trials,001,2023-10-17_19h33.01.535,sequentialearning,2023.1.3,60.10995313077554,
