trials.thisRepN,trials.thisTrialN,trials.thisN,trials.thisIndex,fixation.started,fixation.stopped,key_resp.keys,key_resp.corr,key_resp.rt,key_resp.duration,tilt,participant,session,date,expName,psychopyVersion,frameRate,
0,0,0,0,296.91971519985236,298.02882919996046,up,1,0.4770169002003968,None,0,200repsparticipant1,001,2023-09-08_11h31.42.466,SignalDetection,2023.1.3,60.20534839595617,
1,0,1,0,298.5273957999889,299.52939399983734,down,1,0.7756401002407074,None,-3,200repsparticipant1,001,2023-09-08_11h31.42.466,SignalDetection,2023.1.3,60.20534839595617,
2,0,2,0,300.3257994998712,301.3280986000318,up,1,0.8942237000446767,None,0,200repsparticipant1,001,2023-09-08_11h31.42.466,SignalDetection,2023.1.3,60.20534839595617,
3,0,3,0,302.24095969996415,303.2428080998361,up,1,1.1021287001203746,None,0,200repsparticipant1,001,2023-09-08_11h31.42.466,SignalDetection,2023.1.3,60.20534839595617,
4,0,4,0,304.3719999999739,305.39149650000036,down,1,0.7404742001090199,None,-3,200repsparticipant1,001,2023-09-08_11h31.42.466,SignalDetection,2023.1.3,60.20534839595617,
5,0,5,0,306.1538664000109,307.1556784999557,down,1,0.6839715002570301,None,-3,200repsparticipant1,001,2023-09-08_11h31.42.466,SignalDetection,2023.1.3,60.20534839595617,
6,0,6,0,307.86917670001276,308.88792139990255,down,1,0.8208734001964331,None,-2,200repsparticipant1,001,2023-09-08_11h31.42.466,SignalDetection,2023.1.3,60.20534839595617,
7,0,7,0,309.7338270000182,310.7360182998236,up,1,0.8346919000614434,None,0,200repsparticipant1,001,2023-09-08_11h31.42.466,SignalDetection,2023.1.3,60.20534839595617,
8,0,8,0,311.59891820000485,312.6012928998098,down,1,0.7613769001327455,None,-3,200repsparticipant1,001,2023-09-08_11h31.42.466,SignalDetection,2023.1.3,60.20534839595617,
9,0,9,0,313.38053789990954,314.3824390999507,down,1,0.7917999001219869,None,4,200repsparticipant1,001,2023-09-08_11h31.42.466,SignalDetection,2023.1.3,60.20534839595617,
10,0,10,0,315.2119818998035,316.23093479988165,down,1,0.6867970002349466,None,4,200repsparticipant1,001,2023-09-08_11h31.42.466,SignalDetection,2023.1.3,60.20534839595617,
11,0,11,0,316.9105750999879,317.9126073999796,down,0,2.513186600059271,None,0,200repsparticipant1,001,2023-09-08_11h31.42.466,SignalDetection,2023.1.3,60.20534839595617,
12,0,12,0,320.4407205998432,321.4425083999522,up,0,0.7875168002210557,None,1,200repsparticipant1,001,2023-09-08_11h31.42.466,SignalDetection,2023.1.3,60.20534839595617,
13,0,13,0,322.2553365000058,323.2575609998312,up,1,4.687281199963763,None,0,200repsparticipant1,001,2023-09-08_11h31.42.466,SignalDetection,2023.1.3,60.20534839595617,
14,0,14,0,327.96691239997745,328.96847479999997,down,1,0.738772900076583,None,4,200repsparticipant1,001,2023-09-08_11h31.42.466,SignalDetection,2023.1.3,60.20534839595617,
15,0,15,0,329.7317201998085,330.7338910999242,down,1,0.5976605000905693,None,2,200repsparticipant1,001,2023-09-08_11h31.42.466,SignalDetection,2023.1.3,60.20534839595617,
16,0,16,0,331.36361279990524,332.38290619989857,down,1,0.5983964002225548,None,-5,200repsparticipant1,001,2023-09-08_11h31.42.466,SignalDetection,2023.1.3,60.20534839595617,
17,0,17,0,332.96214199997485,333.96420939988457,up,1,2.061808500206098,None,0,200repsparticipant1,001,2023-09-08_11h31.42.466,SignalDetection,2023.1.3,60.20534839595617,
18,0,18,0,336.0593864999246,337.0777739000041,up,1,1.0975179001688957,None,0,200repsparticipant1,001,2023-09-08_11h31.42.466,SignalDetection,2023.1.3,60.20534839595617,
19,0,19,0,338.1741998998914,339.19262210000306,up,0,1.2559178001247346,None,1,200repsparticipant1,001,2023-09-08_11h31.42.466,SignalDetection,2023.1.3,60.20534839595617,
20,0,20,0,340.43822059989907,341.44205139996484,up,0,1.086264600045979,None,1,200repsparticipant1,001,2023-09-08_11h31.42.466,SignalDetection,2023.1.3,60.20534839595617,
21,0,21,0,342.553999299882,343.5717384000309,down,1,0.5369666002225131,None,-5,200repsparticipant1,001,2023-09-08_11h31.42.466,SignalDetection,2023.1.3,60.20534839595617,
22,0,22,0,344.1352001999039,345.1370202000253,up,0,0.8398343999870121,None,1,200repsparticipant1,001,2023-09-08_11h31.42.466,SignalDetection,2023.1.3,60.20534839595617,
23,0,23,0,346.0000487999059,347.001921299845,up,1,1.109086100012064,None,0,200repsparticipant1,001,2023-09-08_11h31.42.466,SignalDetection,2023.1.3,60.20534839595617,
24,0,24,0,348.1311635999009,349.1335557999555,up,0,0.8474997002631426,None,1,200repsparticipant1,001,2023-09-08_11h31.42.466,SignalDetection,2023.1.3,60.20534839595617,
25,0,25,0,349.9963379998226,350.998177499976,up,1,0.9233677999582142,None,0,200repsparticipant1,001,2023-09-08_11h31.42.466,SignalDetection,2023.1.3,60.20534839595617,
26,0,26,0,351.9444534999784,352.962949299952,down,0,2.1145641000475734,None,0,200repsparticipant1,001,2023-09-08_11h31.42.466,SignalDetection,2023.1.3,60.20534839595617,
27,0,27,0,355.091785099823,356.0935260998085,down,0,1.532399700023234,None,0,200repsparticipant1,001,2023-09-08_11h31.42.466,SignalDetection,2023.1.3,60.20534839595617,
28,0,28,0,357.63887189980596,358.64109979989007,up,1,0.6994560002349317,None,0,200repsparticipant1,001,2023-09-08_11h31.42.466,SignalDetection,2023.1.3,60.20534839595617,
29,0,29,0,359.3539995998144,360.356433799956,up,1,1.389939300250262,None,0,200repsparticipant1,001,2023-09-08_11h31.42.466,SignalDetection,2023.1.3,60.20534839595617,
30,0,30,0,361.76827569981106,362.7707338000182,down,0,0.7727597001940012,None,0,200repsparticipant1,001,2023-09-08_11h31.42.466,SignalDetection,2023.1.3,60.20534839595617,
31,0,31,0,363.56704410002567,364.56901589990593,up,0,1.3482282999902964,None,2,200repsparticipant1,001,2023-09-08_11h31.42.466,SignalDetection,2023.1.3,60.20534839595617,
32,0,32,0,365.93143999995664,366.9503764999099,down,0,1.3820269003044814,None,0,200repsparticipant1,001,2023-09-08_11h31.42.466,SignalDetection,2023.1.3,60.20534839595617,
33,0,33,0,368.3626198999118,369.38100139983,down,0,0.634751700097695,None,0,200repsparticipant1,001,2023-09-08_11h31.42.466,SignalDetection,2023.1.3,60.20534839595617,
34,0,34,0,370.0447002998553,371.0633272998966,down,1,0.7647235002368689,None,-2,200repsparticipant1,001,2023-09-08_11h31.42.466,SignalDetection,2023.1.3,60.20534839595617,
35,0,35,0,371.8259860998951,372.82772589987144,up,0,0.8222743002697825,None,2,200repsparticipant1,001,2023-09-08_11h31.42.466,SignalDetection,2023.1.3,60.20534839595617,
36,0,36,0,373.6740071999375,374.67595339985564,up,1,0.8043451001867652,None,0,200repsparticipant1,001,2023-09-08_11h31.42.466,SignalDetection,2023.1.3,60.20534839595617,
37,0,37,0,375.50570759992115,376.5247132999357,up,1,0.9821500000543892,None,0,200repsparticipant1,001,2023-09-08_11h31.42.466,SignalDetection,2023.1.3,60.20534839595617,
38,0,38,0,377.52029509982094,378.5224120998755,down,1,0.5871288001071662,None,4,200repsparticipant1,001,2023-09-08_11h31.42.466,SignalDetection,2023.1.3,60.20534839595617,
39,0,39,0,379.13595429994166,380.13768649986014,up,1,1.1410590000450611,None,0,200repsparticipant1,001,2023-09-08_11h31.42.466,SignalDetection,2023.1.3,60.20534839595617,
40,0,40,0,381.31754469987936,382.3361777998507,down,1,1.0444664000533521,None,4,200repsparticipant1,001,2023-09-08_11h31.42.466,SignalDetection,2023.1.3,60.20534839595617,
41,0,41,0,383.3651965998579,384.3672251999378,up,0,0.7754499001894146,None,2,200repsparticipant1,001,2023-09-08_11h31.42.466,SignalDetection,2023.1.3,60.20534839595617,
42,0,42,0,385.16423160000704,386.1652800999582,down,1,1.3357701001223177,None,2,200repsparticipant1,001,2023-09-08_11h31.42.466,SignalDetection,2023.1.3,60.20534839595617,
43,0,43,0,387.52809879998676,388.5299229999073,up,0,0.9284954001195729,None,-3,200repsparticipant1,001,2023-09-08_11h31.42.466,SignalDetection,2023.1.3,60.20534839595617,
44,0,44,0,389.49261239985935,390.5119008999318,down,1,0.6562101002782583,None,2,200repsparticipant1,001,2023-09-08_11h31.42.466,SignalDetection,2023.1.3,60.20534839595617,
45,0,45,0,391.157799199922,392.1599121999461,up,1,1.0669740000739694,None,0,200repsparticipant1,001,2023-09-08_11h31.42.466,SignalDetection,2023.1.3,60.20534839595617,
46,0,46,0,393.25603849999607,394.27466239989735,down,1,0.8466206002049148,None,2,200repsparticipant1,001,2023-09-08_11h31.42.466,SignalDetection,2023.1.3,60.20534839595617,
47,0,47,0,395.1043928998988,396.1062476998195,up,1,0.7048043999820948,None,0,200repsparticipant1,001,2023-09-08_11h31.42.466,SignalDetection,2023.1.3,60.20534839595617,
48,0,48,0,396.83583229989745,397.83782009989955,down,1,0.7041349001228809,None,-5,200repsparticipant1,001,2023-09-08_11h31.42.466,SignalDetection,2023.1.3,60.20534839595617,
49,0,49,0,398.5675623998977,399.56991910003126,down,1,0.7620976001489908,None,1,200repsparticipant1,001,2023-09-08_11h31.42.466,SignalDetection,2023.1.3,60.20534839595617,
50,0,50,0,400.36586120002903,401.38414660003036,up,1,2.2675606003031135,None,0,200repsparticipant1,001,2023-09-08_11h31.42.466,SignalDetection,2023.1.3,60.20534839595617,
51,0,51,0,403.64621169981547,404.6479264998343,up,1,0.9104486000724137,None,0,200repsparticipant1,001,2023-09-08_11h31.42.466,SignalDetection,2023.1.3,60.20534839595617,
52,0,52,0,405.5781761999242,406.580644399859,down,1,0.6543238002341241,None,-3,200repsparticipant1,001,2023-09-08_11h31.42.466,SignalDetection,2023.1.3,60.20534839595617,
53,0,53,0,407.2770251999609,408.29470509989187,down,1,0.9179519002791494,None,-2,200repsparticipant1,001,2023-09-08_11h31.42.466,SignalDetection,2023.1.3,60.20534839595617,
54,0,54,0,409.2416095000226,410.2420427999459,up,1,1.0313462000340223,None,0,200repsparticipant1,001,2023-09-08_11h31.42.466,SignalDetection,2023.1.3,60.20534839595617,
55,0,55,0,411.2894170000218,412.2910658000037,up,1,0.9383527000900358,None,0,200repsparticipant1,001,2023-09-08_11h31.42.466,SignalDetection,2023.1.3,60.20534839595617,
56,0,56,0,413.25333720003255,414.2726135000121,up,1,0.8809591000899673,None,0,200repsparticipant1,001,2023-09-08_11h31.42.466,SignalDetection,2023.1.3,60.20534839595617,
57,0,57,0,415.1857967998367,416.1874642998446,up,1,0.7436577000189573,None,0,200repsparticipant1,001,2023-09-08_11h31.42.466,SignalDetection,2023.1.3,60.20534839595617,
58,0,58,0,416.9176302999258,417.91834939992987,down,1,2.8964025999885052,None,-2,200repsparticipant1,001,2023-09-08_11h31.42.466,SignalDetection,2023.1.3,60.20534839595617,
59,0,59,0,420.84681140002795,421.8489260999486,up,1,0.7377149001695216,None,0,200repsparticipant1,001,2023-09-08_11h31.42.466,SignalDetection,2023.1.3,60.20534839595617,
60,0,60,0,422.6116853998974,423.61374679999426,up,1,0.8441964001394808,None,0,200repsparticipant1,001,2023-09-08_11h31.42.466,SignalDetection,2023.1.3,60.20534839595617,
61,0,61,0,424.47672559996136,425.4785360000096,down,0,0.9140877001918852,None,0,200repsparticipant1,001,2023-09-08_11h31.42.466,SignalDetection,2023.1.3,60.20534839595617,
62,0,62,0,426.408069799887,427.4102803999558,down,1,0.7394981002435088,None,4,200repsparticipant1,001,2023-09-08_11h31.42.466,SignalDetection,2023.1.3,60.20534839595617,
63,0,63,0,428.173656599829,429.19216630002484,down,1,0.7338477000594139,None,-4,200repsparticipant1,001,2023-09-08_11h31.42.466,SignalDetection,2023.1.3,60.20534839595617,
64,0,64,0,429.93826860003173,430.9402463999577,up,1,0.8294078002218157,None,0,200repsparticipant1,001,2023-09-08_11h31.42.466,SignalDetection,2023.1.3,60.20534839595617,
65,0,65,0,431.8030623998493,432.8217647999991,up,1,0.6930081001482904,None,0,200repsparticipant1,001,2023-09-08_11h31.42.466,SignalDetection,2023.1.3,60.20534839595617,
66,0,66,0,433.5180825998541,434.53694160003215,down,1,0.6570479001384228,None,3,200repsparticipant1,001,2023-09-08_11h31.42.466,SignalDetection,2023.1.3,60.20534839595617,
67,0,67,0,435.18314959993586,436.1856120999437,down,1,0.6141725000925362,None,-3,200repsparticipant1,001,2023-09-08_11h31.42.466,SignalDetection,2023.1.3,60.20534839595617,
68,0,68,0,436.8155520998407,437.81712299981155,up,0,0.8981203001458198,None,-2,200repsparticipant1,001,2023-09-08_11h31.42.466,SignalDetection,2023.1.3,60.20534839595617,
69,0,69,0,438.7464753999375,439.76526749995537,up,0,0.8330292000900954,None,1,200repsparticipant1,001,2023-09-08_11h31.42.466,SignalDetection,2023.1.3,60.20534839595617,
70,0,70,0,440.59468650002964,441.5974452998489,down,0,1.0590077000670135,None,0,200repsparticipant1,001,2023-09-08_11h31.42.466,SignalDetection,2023.1.3,60.20534839595617,
71,0,71,0,442.6768970999401,443.67845999985,up,0,0.8158650000113994,None,-2,200repsparticipant1,001,2023-09-08_11h31.42.466,SignalDetection,2023.1.3,60.20534839595617,
72,0,72,0,444.5245246000122,445.5432529998943,down,1,0.6092546000145376,None,-5,200repsparticipant1,001,2023-09-08_11h31.42.466,SignalDetection,2023.1.3,60.20534839595617,
73,0,73,0,446.13998809992336,447.1419369999785,down,1,0.7382239999715239,None,1,200repsparticipant1,001,2023-09-08_11h31.42.466,SignalDetection,2023.1.3,60.20534839595617,
74,0,74,0,447.904645399889,448.90682569984347,up,0,0.810342000098899,None,-4,200repsparticipant1,001,2023-09-08_11h31.42.466,SignalDetection,2023.1.3,60.20534839595617,
75,0,75,0,449.7362851998769,450.738523399923,down,1,0.5246117000933737,None,1,200repsparticipant1,001,2023-09-08_11h31.42.466,SignalDetection,2023.1.3,60.20534839595617,
76,0,76,0,451.28488779999316,452.2872195998207,up,1,1.1975396000780165,None,0,200repsparticipant1,001,2023-09-08_11h31.42.466,SignalDetection,2023.1.3,60.20534839595617,
77,0,77,0,453.4995008998085,454.50168500002474,down,0,0.9719241000711918,None,0,200repsparticipant1,001,2023-09-08_11h31.42.466,SignalDetection,2023.1.3,60.20534839595617,
78,0,78,0,455.4978451000061,456.50002859998494,down,1,0.9174040001817048,None,1,200repsparticipant1,001,2023-09-08_11h31.42.466,SignalDetection,2023.1.3,60.20534839595617,
79,0,79,0,457.44603209989145,458.4480451999698,up,1,1.7748717002104968,None,0,200repsparticipant1,001,2023-09-08_11h31.42.466,SignalDetection,2023.1.3,60.20534839595617,
80,0,80,0,460.24338159989566,461.2453475999646,up,0,0.9503266999963671,None,-2,200repsparticipant1,001,2023-09-08_11h31.42.466,SignalDetection,2023.1.3,60.20534839595617,
81,0,81,0,462.22488989983685,463.24332729983144,down,0,0.8332934000063688,None,0,200repsparticipant1,001,2023-09-08_11h31.42.466,SignalDetection,2023.1.3,60.20534839595617,
82,0,82,0,464.0564164998941,465.05884149996564,up,0,0.9988588001579046,None,-2,200repsparticipant1,001,2023-09-08_11h31.42.466,SignalDetection,2023.1.3,60.20534839595617,
83,0,83,0,466.0879221998621,467.10667969984934,up,1,0.80088260024786,None,0,200repsparticipant1,001,2023-09-08_11h31.42.466,SignalDetection,2023.1.3,60.20534839595617,
84,0,84,0,467.90291379997507,468.9050548998639,down,1,0.6602221000939608,None,4,200repsparticipant1,001,2023-09-08_11h31.42.466,SignalDetection,2023.1.3,60.20534839595617,
85,0,85,0,469.5844993998762,470.5865171998739,down,1,0.6561579001136124,None,3,200repsparticipant1,001,2023-09-08_11h31.42.466,SignalDetection,2023.1.3,60.20534839595617,
86,0,86,0,471.2831017000135,472.30165249994025,up,0,0.956749000120908,None,-2,200repsparticipant1,001,2023-09-08_11h31.42.466,SignalDetection,2023.1.3,60.20534839595617,
87,0,87,0,473.2481241999194,474.2500161998905,down,0,0.9007842999417335,None,0,200repsparticipant1,001,2023-09-08_11h31.42.466,SignalDetection,2023.1.3,60.20534839595617,
88,0,88,0,475.17949579982087,476.18157859984785,up,0,0.7105948000680655,None,-3,200repsparticipant1,001,2023-09-08_11h31.42.466,SignalDetection,2023.1.3,60.20534839595617,
89,0,89,0,476.91115219984204,477.9131199999247,down,0,1.819429200142622,None,0,200repsparticipant1,001,2023-09-08_11h31.42.466,SignalDetection,2023.1.3,60.20534839595617,
90,0,90,0,479.7582898000255,480.7603672000114,down,1,0.9471708999481052,None,1,200repsparticipant1,001,2023-09-08_11h31.42.466,SignalDetection,2023.1.3,60.20534839595617,
91,0,91,0,481.7231500998605,482.7250284999609,up,0,0.8003787002526224,None,-2,200repsparticipant1,001,2023-09-08_11h31.42.466,SignalDetection,2023.1.3,60.20534839595617,
92,0,92,0,483.5548623998184,484.5738546999637,down,1,1.4707942001987249,None,2,200repsparticipant1,001,2023-09-08_11h31.42.466,SignalDetection,2023.1.3,60.20534839595617,
93,0,93,0,486.0359227999579,487.0544028999284,up,0,0.774105700198561,None,-3,200repsparticipant1,001,2023-09-08_11h31.42.466,SignalDetection,2023.1.3,60.20534839595617,
94,0,94,0,487.85070459987037,488.85266530001536,up,0,0.7289889003150165,None,-2,200repsparticipant1,001,2023-09-08_11h31.42.466,SignalDetection,2023.1.3,60.20534839595617,
95,0,95,0,489.6161255999468,490.61783879995346,up,1,0.8117546001449227,None,0,200repsparticipant1,001,2023-09-08_11h31.42.466,SignalDetection,2023.1.3,60.20534839595617,
96,0,96,0,491.4641499998979,492.48287740000524,down,1,0.9444711001124233,None,-4,200repsparticipant1,001,2023-09-08_11h31.42.466,SignalDetection,2023.1.3,60.20534839595617,
97,0,97,0,493.4126724000089,494.4144530999474,up,0,0.7560722001362592,None,-3,200repsparticipant1,001,2023-09-08_11h31.42.466,SignalDetection,2023.1.3,60.20534839595617,
98,0,98,0,495.17815729998983,496.1787101000082,up,1,0.9520002999342978,None,0,200repsparticipant1,001,2023-09-08_11h31.42.466,SignalDetection,2023.1.3,60.20534839595617,
99,0,99,0,497.1755803998094,498.1771391998045,down,1,0.7423432001378387,None,2,200repsparticipant1,001,2023-09-08_11h31.42.466,SignalDetection,2023.1.3,60.20534839595617,
100,0,100,0,498.9403565998655,499.94263449986465,down,1,0.7514104002621025,None,4,200repsparticipant1,001,2023-09-08_11h31.42.466,SignalDetection,2023.1.3,60.20534839595617,
101,0,101,0,500.7222028998658,501.7240583000239,up,0,0.9373977000359446,None,1,200repsparticipant1,001,2023-09-08_11h31.42.466,SignalDetection,2023.1.3,60.20534839595617,
102,0,102,0,502.68801519996487,503.68930369988084,down,0,0.9101700999308378,None,0,200repsparticipant1,001,2023-09-08_11h31.42.466,SignalDetection,2023.1.3,60.20534839595617,
103,0,103,0,504.6186442999169,505.6204001000151,down,1,1.1738718003034592,None,4,200repsparticipant1,001,2023-09-08_11h31.42.466,SignalDetection,2023.1.3,60.20534839595617,
104,0,104,0,506.81671029981226,507.8356535998173,up,1,0.6433896999806166,None,0,200repsparticipant1,001,2023-09-08_11h31.42.466,SignalDetection,2023.1.3,60.20534839595617,
105,0,105,0,508.4983535998035,509.50021899980493,up,0,0.7937776001635939,None,1,200repsparticipant1,001,2023-09-08_11h31.42.466,SignalDetection,2023.1.3,60.20534839595617,
106,0,106,0,510.3301064998377,511.3483396000229,down,1,0.7174574001692235,None,-4,200repsparticipant1,001,2023-09-08_11h31.42.466,SignalDetection,2023.1.3,60.20534839595617,
107,0,107,0,512.0616095999721,513.0643205998931,down,1,0.7224709000438452,None,-2,200repsparticipant1,001,2023-09-08_11h31.42.466,SignalDetection,2023.1.3,60.20534839595617,
108,0,108,0,513.8098695999943,514.8284510998055,down,1,0.5640714999753982,None,-4,200repsparticipant1,001,2023-09-08_11h31.42.466,SignalDetection,2023.1.3,60.20534839595617,
109,0,109,0,515.4087598999031,516.4106765999459,up,0,0.9433135001454502,None,2,200repsparticipant1,001,2023-09-08_11h31.42.466,SignalDetection,2023.1.3,60.20534839595617,
110,0,110,0,517.3733308999799,518.3752290999983,down,0,0.924701200099662,None,0,200repsparticipant1,001,2023-09-08_11h31.42.466,SignalDetection,2023.1.3,60.20534839595617,
111,0,111,0,519.3213888998143,520.3403278000187,up,1,0.6791800002101809,None,0,200repsparticipant1,001,2023-09-08_11h31.42.466,SignalDetection,2023.1.3,60.20534839595617,
112,0,112,0,521.0366891999729,522.0387907000259,up,1,0.7747136999387294,None,0,200repsparticipant1,001,2023-09-08_11h31.42.466,SignalDetection,2023.1.3,60.20534839595617,
113,0,113,0,522.835141699994,523.8372655999847,down,1,0.4722516001202166,None,4,200repsparticipant1,001,2023-09-08_11h31.42.466,SignalDetection,2023.1.3,60.20534839595617,
114,0,114,0,524.3336600000039,525.3522641998716,down,0,1.2374691001605242,None,0,200repsparticipant1,001,2023-09-08_11h31.42.466,SignalDetection,2023.1.3,60.20534839595617,
115,0,115,0,526.6148912999779,527.61696080002,down,1,0.6813380001112819,None,-3,200repsparticipant1,001,2023-09-08_11h31.42.466,SignalDetection,2023.1.3,60.20534839595617,
116,0,116,0,528.3129367998336,529.3150056998711,up,1,0.7099954001605511,None,0,200repsparticipant1,001,2023-09-08_11h31.42.466,SignalDetection,2023.1.3,60.20534839595617,
117,0,117,0,530.045208199881,531.0471272999421,up,1,0.78426230000332,None,0,200repsparticipant1,001,2023-09-08_11h31.42.466,SignalDetection,2023.1.3,60.20534839595617,
118,0,118,0,531.8599449000321,532.8617222998291,up,0,3.2950568001251668,None,1,200repsparticipant1,001,2023-09-08_11h31.42.466,SignalDetection,2023.1.3,60.20534839595617,
119,0,119,0,536.1722996998578,537.1744381999597,up,1,0.6935870002489537,None,0,200repsparticipant1,001,2023-09-08_11h31.42.466,SignalDetection,2023.1.3,60.20534839595617,
120,0,120,0,537.8873387000058,538.8896677999292,up,1,0.7574158001225442,None,0,200repsparticipant1,001,2023-09-08_11h31.42.466,SignalDetection,2023.1.3,60.20534839595617,
121,0,121,0,539.668134199921,540.6690158999991,down,1,0.9976749001070857,None,2,200repsparticipant1,001,2023-09-08_11h31.42.466,SignalDetection,2023.1.3,60.20534839595617,
122,0,122,0,541.6826261999086,542.6847716998309,down,1,0.6670299002435058,None,3,200repsparticipant1,001,2023-09-08_11h31.42.466,SignalDetection,2023.1.3,60.20534839595617,
123,0,123,0,543.3662459999323,544.3668578998186,down,1,1.17562870006077,None,-3,200repsparticipant1,001,2023-09-08_11h31.42.466,SignalDetection,2023.1.3,60.20534839595617,
124,0,124,0,545.5800020999741,546.5818725000136,up,1,0.6790402003098279,None,0,200repsparticipant1,001,2023-09-08_11h31.42.466,SignalDetection,2023.1.3,60.20534839595617,
125,0,125,0,547.278918299824,548.280464099953,up,1,0.7581569000612944,None,0,200repsparticipant1,001,2023-09-08_11h31.42.466,SignalDetection,2023.1.3,60.20534839595617,
126,0,126,0,549.0609913999215,550.062668700004,down,1,0.7764006000943482,None,2,200repsparticipant1,001,2023-09-08_11h31.42.466,SignalDetection,2023.1.3,60.20534839595617,
127,0,127,0,550.8585910999682,551.8606936999131,up,0,0.7220201999880373,None,1,200repsparticipant1,001,2023-09-08_11h31.42.466,SignalDetection,2023.1.3,60.20534839595617,
128,0,128,0,552.6070707000326,553.6088831999805,down,0,0.8677188002038747,None,0,200repsparticipant1,001,2023-09-08_11h31.42.466,SignalDetection,2023.1.3,60.20534839595617,
129,0,129,0,554.5052192998119,555.5073968998622,down,1,0.6386385001242161,None,-4,200repsparticipant1,001,2023-09-08_11h31.42.466,SignalDetection,2023.1.3,60.20534839595617,
130,0,130,0,556.1701499000192,557.1722523998469,down,1,0.6515590001363307,None,-3,200repsparticipant1,001,2023-09-08_11h31.42.466,SignalDetection,2023.1.3,60.20534839595617,
131,0,131,0,557.8520904998295,558.8542994000018,down,1,1.0068878000602126,None,4,200repsparticipant1,001,2023-09-08_11h31.42.466,SignalDetection,2023.1.3,60.20534839595617,
132,0,132,0,559.883499099873,560.9021505999845,down,0,0.8043722002767026,None,0,200repsparticipant1,001,2023-09-08_11h31.42.466,SignalDetection,2023.1.3,60.20534839595617,
133,0,133,0,561.7317925000098,562.7507997998036,up,1,0.7780920001678169,None,0,200repsparticipant1,001,2023-09-08_11h31.42.466,SignalDetection,2023.1.3,60.20534839595617,
134,0,134,0,563.5468752000015,564.5657498999499,up,1,1.5885058001149446,None,0,200repsparticipant1,001,2023-09-08_11h31.42.466,SignalDetection,2023.1.3,60.20534839595617,
135,0,135,0,566.1776699998882,567.1798888999037,down,0,1.0810358000453562,None,0,200repsparticipant1,001,2023-09-08_11h31.42.466,SignalDetection,2023.1.3,60.20534839595617,
136,0,136,0,568.2928021999542,569.3121956998948,down,0,0.8876361001748592,None,0,200repsparticipant1,001,2023-09-08_11h31.42.466,SignalDetection,2023.1.3,60.20534839595617,
137,0,137,0,570.1907485998236,571.1927364999428,down,0,0.6133379002567381,None,0,200repsparticipant1,001,2023-09-08_11h31.42.466,SignalDetection,2023.1.3,60.20534839595617,
138,0,138,0,571.8223705999553,572.8242122998927,down,0,0.9015051000751555,None,0,200repsparticipant1,001,2023-09-08_11h31.42.466,SignalDetection,2023.1.3,60.20534839595617,
139,0,139,0,573.7540249000303,574.7740648000035,down,1,0.8426811001263559,None,-5,200repsparticipant1,001,2023-09-08_11h31.42.466,SignalDetection,2023.1.3,60.20534839595617,
140,0,140,0,575.6355908999685,576.6378462000284,down,1,0.6608448000624776,None,1,200repsparticipant1,001,2023-09-08_11h31.42.466,SignalDetection,2023.1.3,60.20534839595617,
141,0,141,0,577.3172165998258,578.3194215998519,up,0,1.8125020002480596,None,-2,200repsparticipant1,001,2023-09-08_11h31.42.466,SignalDetection,2023.1.3,60.20534839595617,
142,0,142,0,580.1479775998741,581.1502836998552,down,1,1.3332647001370788,None,3,200repsparticipant1,001,2023-09-08_11h31.42.466,SignalDetection,2023.1.3,60.20534839595617,
143,0,143,0,582.5126038999297,583.5150062998291,down,1,0.6930840001441538,None,1,200repsparticipant1,001,2023-09-08_11h31.42.466,SignalDetection,2023.1.3,60.20534839595617,
144,0,144,0,584.2440553000197,585.2464087000117,up,1,0.9963309001177549,None,0,200repsparticipant1,001,2023-09-08_11h31.42.466,SignalDetection,2023.1.3,60.20534839595617,
145,0,145,0,586.2589738999959,587.2608394999988,down,1,0.9954825001768768,None,-4,200repsparticipant1,001,2023-09-08_11h31.42.466,SignalDetection,2023.1.3,60.20534839595617,
146,0,146,0,588.2734804998618,589.2757232999429,up,1,1.2149648000486195,None,0,200repsparticipant1,001,2023-09-08_11h31.42.466,SignalDetection,2023.1.3,60.20534839595617,
147,0,147,0,590.5048660999164,591.5072178998962,down,1,0.6177649002056569,None,1,200repsparticipant1,001,2023-09-08_11h31.42.466,SignalDetection,2023.1.3,60.20534839595617,
148,0,148,0,592.1535449998919,593.1720473999158,down,0,2.2485518001485616,None,0,200repsparticipant1,001,2023-09-08_11h31.42.466,SignalDetection,2023.1.3,60.20534839595617,
149,0,149,0,595.4167978998739,596.4357697998639,up,1,2.797840900020674,None,0,200repsparticipant1,001,2023-09-08_11h31.42.466,SignalDetection,2023.1.3,60.20534839595617,
150,0,150,0,599.2138250998687,600.2155518999789,up,1,0.6689762000460178,None,0,200repsparticipant1,001,2023-09-08_11h31.42.466,SignalDetection,2023.1.3,60.20534839595617,
151,0,151,0,600.9122176999226,601.9139737999067,up,1,0.8064982001669705,None,0,200repsparticipant1,001,2023-09-08_11h31.42.466,SignalDetection,2023.1.3,60.20534839595617,
152,0,152,0,602.7437265999615,603.7455237999093,down,1,0.6838525000493973,None,-4,200repsparticipant1,001,2023-09-08_11h31.42.466,SignalDetection,2023.1.3,60.20534839595617,
153,0,153,0,604.4586684999522,605.4778797999024,up,1,0.6940555002074689,None,0,200repsparticipant1,001,2023-09-08_11h31.42.466,SignalDetection,2023.1.3,60.20534839595617,
154,0,154,0,606.1571177998558,607.1591783999465,up,0,0.7381249000318348,None,1,200repsparticipant1,001,2023-09-08_11h31.42.466,SignalDetection,2023.1.3,60.20534839595617,
155,0,155,0,607.9220467000268,608.9242140999995,down,1,0.8216321999207139,None,-2,200repsparticipant1,001,2023-09-08_11h31.42.466,SignalDetection,2023.1.3,60.20534839595617,
156,0,156,0,609.7704475999344,610.7724485998042,up,1,0.926115500042215,None,0,200repsparticipant1,001,2023-09-08_11h31.42.466,SignalDetection,2023.1.3,60.20534839595617,
157,0,157,0,611.7350136998575,612.7538721999153,up,0,0.6388399002607912,None,-3,200repsparticipant1,001,2023-09-08_11h31.42.466,SignalDetection,2023.1.3,60.20534839595617,
158,0,158,0,613.3837068998255,614.3862741999328,down,1,0.7483710001688451,None,-3,200repsparticipant1,001,2023-09-08_11h31.42.466,SignalDetection,2023.1.3,60.20534839595617,
159,0,159,0,615.1656270998064,616.1845399998128,down,1,0.8340791002847254,None,-3,200repsparticipant1,001,2023-09-08_11h31.42.466,SignalDetection,2023.1.3,60.20534839595617,
160,0,160,0,617.0138715999201,618.0153334999923,down,1,0.7448522001504898,None,4,200repsparticipant1,001,2023-09-08_11h31.42.466,SignalDetection,2023.1.3,60.20534839595617,
161,0,161,0,618.7961446000263,619.8138828999363,up,0,0.9796334002166986,None,-2,200repsparticipant1,001,2023-09-08_11h31.42.466,SignalDetection,2023.1.3,60.20534839595617,
162,0,162,0,620.7934498998802,621.7956453999504,up,1,1.0995568002108485,None,0,200repsparticipant1,001,2023-09-08_11h31.42.466,SignalDetection,2023.1.3,60.20534839595617,
163,0,163,0,622.9081460000016,623.9103520999197,down,1,1.0905362002085894,None,-4,200repsparticipant1,001,2023-09-08_11h31.42.466,SignalDetection,2023.1.3,60.20534839595617,
164,0,164,0,625.0229162999894,626.0247267999221,down,1,0.6467099001165479,None,-5,200repsparticipant1,001,2023-09-08_11h31.42.466,SignalDetection,2023.1.3,60.20534839595617,
165,0,165,0,626.688084299909,627.6900333999656,up,1,0.7323511000722647,None,0,200repsparticipant1,001,2023-09-08_11h31.42.466,SignalDetection,2023.1.3,60.20534839595617,
166,0,166,0,628.4362145999912,629.4385959999636,up,0,0.6915426000487059,None,-2,200repsparticipant1,001,2023-09-08_11h31.42.466,SignalDetection,2023.1.3,60.20534839595617,
167,0,167,0,630.151399999857,631.15348670003,down,1,0.8024848999921232,None,-5,200repsparticipant1,001,2023-09-08_11h31.42.466,SignalDetection,2023.1.3,60.20534839595617,
168,0,168,0,631.9828995999414,632.9841022000182,down,0,1.699578900123015,None,0,200repsparticipant1,001,2023-09-08_11h31.42.466,SignalDetection,2023.1.3,60.20534839595617,
169,0,169,0,634.7136935999151,635.715693499893,down,0,0.958748500328511,None,0,200repsparticipant1,001,2023-09-08_11h31.42.466,SignalDetection,2023.1.3,60.20534839595617,
170,0,170,0,636.7117762998678,637.7306587998755,up,1,0.7836641001049429,None,0,200repsparticipant1,001,2023-09-08_11h31.42.466,SignalDetection,2023.1.3,60.20534839595617,
171,0,171,0,638.5105438998435,639.5124438998755,down,1,0.7222927999682724,None,-4,200repsparticipant1,001,2023-09-08_11h31.42.466,SignalDetection,2023.1.3,60.20534839595617,
172,0,172,0,640.2588878998067,641.2606498999521,up,1,0.7326279000844806,None,0,200repsparticipant1,001,2023-09-08_11h31.42.466,SignalDetection,2023.1.3,60.20534839595617,
173,0,173,0,642.0071331998333,643.0090482998639,down,1,0.9607547000050545,None,1,200repsparticipant1,001,2023-09-08_11h31.42.466,SignalDetection,2023.1.3,60.20534839595617,
174,0,174,0,643.9887235998176,644.9902600999922,up,0,1.012082900153473,None,-5,200repsparticipant1,001,2023-09-08_11h31.42.466,SignalDetection,2023.1.3,60.20534839595617,
175,0,175,0,646.0198698998429,647.0221008998342,up,1,1.458815700141713,None,0,200repsparticipant1,001,2023-09-08_11h31.42.466,SignalDetection,2023.1.3,60.20534839595617,
176,0,176,0,648.5011022000108,649.5027336999774,down,1,0.69725720025599,None,3,200repsparticipant1,001,2023-09-08_11h31.42.466,SignalDetection,2023.1.3,60.20534839595617,
177,0,177,0,650.2157276999205,651.2182185000274,down,0,0.9010799000971019,None,0,200repsparticipant1,001,2023-09-08_11h31.42.466,SignalDetection,2023.1.3,60.20534839595617,
178,0,178,0,652.1474427999929,653.1492504999042,down,1,0.7992095001973212,None,3,200repsparticipant1,001,2023-09-08_11h31.42.466,SignalDetection,2023.1.3,60.20534839595617,
179,0,179,0,653.9623155998997,654.9643446998671,up,1,0.6146615000907332,None,0,200repsparticipant1,001,2023-09-08_11h31.42.466,SignalDetection,2023.1.3,60.20534839595617,
180,0,180,0,655.5943130999804,656.596151900012,up,1,0.8314934000372887,None,0,200repsparticipant1,001,2023-09-08_11h31.42.466,SignalDetection,2023.1.3,60.20534839595617,
181,0,181,0,657.4426780999638,658.4446083998773,down,1,0.6381341002415866,None,-4,200repsparticipant1,001,2023-09-08_11h31.42.466,SignalDetection,2023.1.3,60.20534839595617,
182,0,182,0,659.1241216999479,660.143518100027,up,1,0.9047276000492275,None,0,200repsparticipant1,001,2023-09-08_11h31.42.466,SignalDetection,2023.1.3,60.20534839595617,
183,0,183,0,661.0392745998688,662.0413988998625,up,0,0.8986231002490968,None,1,200repsparticipant1,001,2023-09-08_11h31.42.466,SignalDetection,2023.1.3,60.20534839595617,
184,0,184,0,662.9541350998916,663.9560975998174,down,1,1.395840800134465,None,1,200repsparticipant1,001,2023-09-08_11h31.42.466,SignalDetection,2023.1.3,60.20534839595617,
185,0,185,0,665.3685253998265,666.3704214999452,up,0,0.6637543002143502,None,-3,200repsparticipant1,001,2023-09-08_11h31.42.466,SignalDetection,2023.1.3,60.20534839595617,
186,0,186,0,667.0499400999397,668.0520719999913,up,1,1.4668074001092464,None,0,200repsparticipant1,001,2023-09-08_11h31.42.466,SignalDetection,2023.1.3,60.20534839595617,
187,0,187,0,669.5479585998692,670.5669588998426,down,0,0.7678644999396056,None,0,200repsparticipant1,001,2023-09-08_11h31.42.466,SignalDetection,2023.1.3,60.20534839595617,
188,0,188,0,671.3463186998852,672.3483915999532,up,0,0.6873243001755327,None,-2,200repsparticipant1,001,2023-09-08_11h31.42.466,SignalDetection,2023.1.3,60.20534839595617,
189,0,189,0,673.0611045998521,674.0805049999617,up,1,0.6992907002568245,None,0,200repsparticipant1,001,2023-09-08_11h31.42.466,SignalDetection,2023.1.3,60.20534839595617,
190,0,190,0,674.7929946000222,675.7947046000045,up,1,1.365764900110662,None,0,200repsparticipant1,001,2023-09-08_11h31.42.466,SignalDetection,2023.1.3,60.20534839595617,
191,0,191,0,677.1749292998575,678.1756066998933,up,0,0.6662492000032216,None,-2,200repsparticipant1,001,2023-09-08_11h31.42.466,SignalDetection,2023.1.3,60.20534839595617,
192,0,192,0,678.8720439998433,679.8722705999389,down,1,0.7515398000832647,None,1,200repsparticipant1,001,2023-09-08_11h31.42.466,SignalDetection,2023.1.3,60.20534839595617,
193,0,193,0,680.6538147998508,681.6560470999684,down,1,0.7346934000961483,None,-5,200repsparticipant1,001,2023-09-08_11h31.42.466,SignalDetection,2023.1.3,60.20534839595617,
194,0,194,0,682.4192035000306,683.4211899999063,up,1,0.9308919999748468,None,0,200repsparticipant1,001,2023-09-08_11h31.42.466,SignalDetection,2023.1.3,60.20534839595617,
195,0,195,0,684.367448899895,685.3690431998111,up,1,2.2923228002619,None,0,200repsparticipant1,001,2023-09-08_11h31.42.466,SignalDetection,2023.1.3,60.20534839595617,
196,0,196,0,687.6808101998176,688.6828246999066,up,1,0.8430584000889212,None,0,200repsparticipant1,001,2023-09-08_11h31.42.466,SignalDetection,2023.1.3,60.20534839595617,
197,0,197,0,689.5458892998286,690.5478185999673,down,1,0.6500506000593305,None,-4,200repsparticipant1,001,2023-09-08_11h31.42.466,SignalDetection,2023.1.3,60.20534839595617,
198,0,198,0,691.2108155000024,692.2129200999625,up,0,2.7173684001900256,None,4,200repsparticipant1,001,2023-09-08_11h31.42.466,SignalDetection,2023.1.3,60.20534839595617,
199,0,199,0,694.9571791000199,695.9592555998825,up,0,1.4162585001904517,None,1,200repsparticipant1,001,2023-09-08_11h31.42.466,SignalDetection,2023.1.3,60.20534839595617,
