trials.thisRepN,trials.thisTrialN,trials.thisN,trials.thisIndex,num_distr,fixation.started,target.started,mouse.started,fixation.stopped,mouse.x,mouse.y,mouse.leftButton,mouse.midButton,mouse.rightButton,mouse.time,mouse.clicked_name,participant,session,date,expName,psychopyVersion,frameRate,
0,0,0,0,5,22.585507200099528,22.585507200099528,0.11634969990700483,23.613428900018334,[0.23148148148148148],[-0.2534722222222222],[1],[0],[0],[2.119620200013742],['target'],trial200,001,2023-09-26_21h25.55.397,tutorial3,2023.1.3,60.049384598455156,
1,0,1,0,10,24.728021300164983,24.728021300164983,0.10343310004100204,25.74399650003761,[-0.49189814814814814],[0.037037037037037035],[1],[0],[0],[1.7739091999828815],['target'],trial200,001,2023-09-26_21h25.55.397,tutorial3,2023.1.3,60.049384598455156,
2,0,2,0,5,26.542912900215015,26.542912900215015,0.03802690003067255,27.576628500130028,[0.4131944444444444],[0.04050925925925926],[1],[0],[0],[1.655222199857235],['target'],trial200,001,2023-09-26_21h25.55.397,tutorial3,2023.1.3,60.049384598455156,
3,0,3,0,5,28.27471960010007,28.27471960010007,0.05191469984129071,29.29168500006199,[-0.28125],[0.4537037037037037],[1],[0],[0],[1.882748399861157],['target'],trial200,001,2023-09-26_21h25.55.397,tutorial3,2023.1.3,60.049384598455156,
4,0,4,0,5,30.239649000111967,30.239649000111967,0.06672870018519461,31.27355969999917,[-0.3958333333333333],[0.20949074074074073],[1],[0],[0],[1.4342590000014752],['target'],trial200,001,2023-09-26_21h25.55.397,tutorial3,2023.1.3,60.049384598455156,
5,0,5,0,5,31.75548020005226,31.75548020005226,0.06364000006578863,32.771860000211746,[-0.44328703703703703],[-0.16550925925925927],[1],[0],[0],[1.9031401998363435],['target'],trial200,001,2023-09-26_21h25.55.397,tutorial3,2023.1.3,60.049384598455156,
6,0,6,0,10,33.7697054001037,33.7697054001037,0.10941509995609522,34.80283480021171,[0.4664351851851852],[0.1412037037037037],[1],[0],[0],[1.9610354001633823],['target'],trial200,001,2023-09-26_21h25.55.397,tutorial3,2023.1.3,60.049384598455156,
7,0,7,0,5,35.78430220019072,35.78430220019072,0.05148519994691014,36.83463490009308,[-0.2349537037037037],[0.45601851851851855],[1],[0],[0],[2.069091800134629],['target'],trial200,001,2023-09-26_21h25.55.397,tutorial3,2023.1.3,60.049384598455156,
8,0,8,0,5,37.932323900051415,37.932323900051415,0.06027949997223914,38.96570760011673,[0.4398148148148148],[0.48726851851851855],[1],[0],[0],[2.8564424000214785],['target'],trial200,001,2023-09-26_21h25.55.397,tutorial3,2023.1.3,60.049384598455156,
9,0,9,0,10,40.87969260010868,40.87969260010868,0.07766550011001527,41.92959340009838,[-0.22569444444444445],[-0.2222222222222222],[1],[0],[0],[2.422992500010878],['target'],trial200,001,2023-09-26_21h25.55.397,tutorial3,2023.1.3,60.049384598455156,
10,0,10,0,5,43.39414530014619,43.39414530014619,0.06415900005958974,44.41064070002176,[-0.11458333333333333],[-0.4618055555555556],[1],[0],[0],[2.2860010000877082],['target'],trial200,001,2023-09-26_21h25.55.397,tutorial3,2023.1.3,60.049384598455156,
11,0,11,0,5,45.75928780017421,45.75928780017421,0.06145499995909631,46.791516800178215,[0.12731481481481483],[-0.12152777777777778],[1],[0],[0],[1.7766835999209434],['target'],trial200,001,2023-09-26_21h25.55.397,tutorial3,2023.1.3,60.049384598455156,
12,0,12,0,10,47.6233517001383,47.6233517001383,0.08593409997411072,48.68992260005325,[-0.09953703703703703],[0.07407407407407407],[1],[0],[0],[1.7491023000329733],['target'],trial200,001,2023-09-26_21h25.55.397,tutorial3,2023.1.3,60.049384598455156,
13,0,13,0,10,49.471522100036964,49.471522100036964,0.08516469993628561,50.52146440022625,[-0.14930555555555555],[-0.2523148148148148],[1],[0],[0],[1.984500400023535],['target'],trial200,001,2023-09-26_21h25.55.397,tutorial3,2023.1.3,60.049384598455156,
14,0,14,0,5,51.53622440015897,51.53622440015897,0.063504199963063,52.55308640003204,[-0.36342592592592593],[0.16203703703703703],[1],[0],[0],[1.8224741998128593],['target'],trial200,001,2023-09-26_21h25.55.397,tutorial3,2023.1.3,60.049384598455156,
15,0,15,0,5,53.43447340000421,53.43447340000421,0.06620040000416338,54.468146700179204,[0.12037037037037036],[0.3576388888888889],[1],[0],[0],[1.7189535999204963],['target'],trial200,001,2023-09-26_21h25.55.397,tutorial3,2023.1.3,60.049384598455156,
16,0,16,0,10,55.249550600070506,55.249550600070506,0.09458999987691641,56.31628360017203,[-0.10648148148148148],[-0.2824074074074074],[1],[0],[0],[1.7400849000550807],['target'],trial200,001,2023-09-26_21h25.55.397,tutorial3,2023.1.3,60.049384598455156,
17,0,17,0,10,57.11456710007042,57.11456710007042,0.095505699981004,58.18109480012208,[0.27199074074074076],[-0.4479166666666667],[1],[0],[0],[1.8087110000196844],['target'],trial200,001,2023-09-26_21h25.55.397,tutorial3,2023.1.3,60.049384598455156,
18,0,18,0,10,58.99604710005224,58.99604710005224,0.07748760003596544,60.0628343001008,[0.3414351851851852],[-0.3333333333333333],[1],[0],[0],[2.340068400138989],['target'],trial200,001,2023-09-26_21h25.55.397,tutorial3,2023.1.3,60.049384598455156,
19,0,19,0,5,61.42710610013455,61.42710610013455,0.06312369997613132,62.4438844001852,[-0.49074074074074076],[0.4849537037037037],[1],[0],[0],[2.8565734999720007],['target'],trial200,001,2023-09-26_21h25.55.397,tutorial3,2023.1.3,60.049384598455156,
20,0,20,0,5,64.3588304000441,64.3588304000441,0.06911269994452596,65.39761050022207,[-0.4930555555555556],[0.052083333333333336],[1],[0],[0],[2.5460772998631],['target'],trial200,001,2023-09-26_21h25.55.397,tutorial3,2023.1.3,60.049384598455156,
21,0,21,0,10,67.02217040001415,67.02217040001415,0.1023993999697268,68.08870740002021,[-0.10416666666666667],[0.05555555555555555],[1],[0],[0],[1.7529627999756485],['target'],trial200,001,2023-09-26_21h25.55.397,tutorial3,2023.1.3,60.049384598455156,
22,0,22,0,5,68.85426810011268,68.85426810011268,0.06016650004312396,69.87043900019489,[0.08680555555555555],[-0.3136574074074074],[1],[0],[0],[2.2898876999970526],['target'],trial200,001,2023-09-26_21h25.55.397,tutorial3,2023.1.3,60.049384598455156,
23,0,23,0,5,71.20129980007187,71.20129980007187,0.06054099998436868,72.23452550009824,[-0.023148148148148147],[-0.024305555555555556],[1],[0],[0],[1.7570011999923736],['target'],trial200,001,2023-09-26_21h25.55.397,tutorial3,2023.1.3,60.049384598455156,
24,0,24,0,5,73.03272390016355,73.03272390016355,0.060652000131085515,74.06659400020726,[-0.21064814814814814],[-0.15046296296296297],[1],[0],[0],[2.840630799997598],['target'],trial200,001,2023-09-26_21h25.55.397,tutorial3,2023.1.3,60.049384598455156,
25,0,25,0,10,75.99672520020977,75.99672520020977,0.10189080005511642,77.04668680019677,[-0.3611111111111111],[-0.003472222222222222],[1],[0],[0],[1.9353541999589652],['target'],trial200,001,2023-09-26_21h25.55.397,tutorial3,2023.1.3,60.049384598455156,
26,0,26,0,10,78.07870010007173,78.07870010007173,0.13378120004199445,79.14540560008027,[0.39814814814814814],[-0.33912037037037035],[1],[0],[0],[3.6162505000829697],['target'],trial200,001,2023-09-26_21h25.55.397,tutorial3,2023.1.3,60.049384598455156,
27,0,27,0,10,81.85800640005618,81.85800640005618,0.1257931999862194,82.8906747000292,[0.33449074074074076],[0.06597222222222222],[1],[0],[0],[2.463088700082153],['target'],trial200,001,2023-09-26_21h25.55.397,tutorial3,2023.1.3,60.049384598455156,
28,0,28,0,5,84.35559160006233,84.35559160006233,0.05302290013059974,85.38919930020347,[0.3148148148148148],[-0.44907407407407407],[1],[0],[0],[2.2634544998873025],['target'],trial200,001,2023-09-26_21h25.55.397,tutorial3,2023.1.3,60.049384598455156,
29,0,29,0,10,86.83642050018534,86.83642050018534,0.20601680013351142,87.88648860016838,[-0.2847222222222222],[-0.18171296296296297],[1],[0],[0],[1.9290970000438392],['target'],trial200,001,2023-09-26_21h25.55.397,tutorial3,2023.1.3,60.049384598455156,
30,0,30,0,10,89.00130870006979,89.00130870006979,0.202979699941352,90.03461590013467,[0.006944444444444444],[-0.0798611111111111],[1],[0],[0],[2.0821221999358386],['target'],trial200,001,2023-09-26_21h25.55.397,tutorial3,2023.1.3,60.049384598455156,
31,0,31,0,10,91.16595850000158,91.16595850000158,0.08471290022134781,92.23259560018778,[-0.09953703703703703],[-0.44560185185185186],[1],[0],[0],[2.4563791998662055],['target'],trial200,001,2023-09-26_21h25.55.397,tutorial3,2023.1.3,60.049384598455156,
32,0,32,0,5,93.69781890022568,93.69781890022568,0.059686099877581,94.74701600009575,[0.016203703703703703],[-0.3854166666666667],[1],[0],[0],[1.9559786000754684],['target'],trial200,001,2023-09-26_21h25.55.397,tutorial3,2023.1.3,60.049384598455156,
33,0,33,0,10,95.86233340017498,95.86233340017498,0.17427739989943802,96.91203060001135,[0.06712962962962964],[0.14467592592592593],[1],[0],[0],[2.3628893001005054],['target'],trial200,001,2023-09-26_21h25.55.397,tutorial3,2023.1.3,60.049384598455156,
34,0,34,0,10,98.30916010006331,98.30916010006331,0.0902617999818176,99.35948590002954,[0.40625],[-0.4895833333333333],[1],[0],[0],[2.589804599992931],['target'],trial200,001,2023-09-26_21h25.55.397,tutorial3,2023.1.3,60.049384598455156,
35,0,35,0,10,100.99008670006879,100.99008670006879,0.09361049998551607,102.05666760005988,[-0.14351851851851852],[0.028935185185185185],[1],[0],[0],[1.7922408999875188],['target'],trial200,001,2023-09-26_21h25.55.397,tutorial3,2023.1.3,60.049384598455156,
36,0,36,0,10,102.92155930004083,102.92155930004083,0.11407650006003678,103.95488760014996,[0.4791666666666667],[0.30324074074074076],[1],[0],[0],[2.7371827999595553],['target'],trial200,001,2023-09-26_21h25.55.397,tutorial3,2023.1.3,60.049384598455156,
37,0,37,0,5,105.68542640004307,105.68542640004307,0.032219599932432175,106.70239230012521,[-0.43171296296296297],[0.09490740740740741],[1],[0],[0],[2.011014500167221],['target'],trial200,001,2023-09-26_21h25.55.397,tutorial3,2023.1.3,60.049384598455156,
38,0,38,0,10,107.80037680012174,107.80037680012174,0.09240119997411966,108.85024080006406,[0.4479166666666667],[-0.4039351851851852],[1],[0],[0],[2.677538499934599],['target'],trial200,001,2023-09-26_21h25.55.397,tutorial3,2023.1.3,60.049384598455156,
39,0,39,0,5,110.56412710016593,110.56412710016593,0.06426850007846951,111.5976395001635,[0.11805555555555555],[-0.24768518518518517],[1],[0],[0],[2.1385636997874826],['target'],trial200,001,2023-09-26_21h25.55.397,tutorial3,2023.1.3,60.049384598455156,
40,0,40,0,10,112.79565270012245,112.79565270012245,0.08096019993536174,113.84621980017982,[0.037037037037037035],[-0.35532407407407407],[1],[0],[0],[2.1866184000391513],['target'],trial200,001,2023-09-26_21h25.55.397,tutorial3,2023.1.3,60.049384598455156,
41,0,41,0,5,115.07679100008681,115.07679100008681,0.08481460018083453,116.1095300000161,[-0.3101851851851852],[-0.3020833333333333],[1],[0],[0],[1.6029618000611663],['target'],trial200,001,2023-09-26_21h25.55.397,tutorial3,2023.1.3,60.049384598455156,
42,0,42,0,10,116.91038260003552,116.91038260003552,0.1247072999831289,117.94095910014585,[0.2013888888888889],[0.24074074074074073],[1],[0],[0],[3.142463200027123],['target'],trial200,001,2023-09-26_21h25.55.397,tutorial3,2023.1.3,60.049384598455156,
43,0,43,0,5,120.039954100037,120.039954100037,0.060899300035089254,121.05600180011243,[-0.26157407407407407],[0.4861111111111111],[1],[0],[0],[2.1619682998862118],['target'],trial200,001,2023-09-26_21h25.55.397,tutorial3,2023.1.3,60.049384598455156,
44,0,44,0,10,122.30338940001093,122.30338940001093,0.09662680001929402,123.35374010005035,[0.4756944444444444],[0.013888888888888888],[1],[0],[0],[1.835338099859655],['target'],trial200,001,2023-09-26_21h25.55.397,tutorial3,2023.1.3,60.049384598455156,
45,0,45,0,5,124.21804300020449,124.21804300020449,0.06638570013456047,125.23536040005274,[0.41087962962962965],[-0.03356481481481482],[1],[0],[0],[1.6535204998217523],['target'],trial200,001,2023-09-26_21h25.55.397,tutorial3,2023.1.3,60.049384598455156,
46,0,46,0,10,125.94993690005504,125.94993690005504,0.07561179995536804,127.01675579999574,[0.20833333333333334],[-0.03356481481481482],[1],[0],[0],[2.0411743000149727],['target'],trial200,001,2023-09-26_21h25.55.397,tutorial3,2023.1.3,60.049384598455156,
47,0,47,0,5,128.047992200125,128.047992200125,0.04958739993162453,129.06500060018152,[-0.08333333333333333],[0.2777777777777778],[1],[0],[0],[2.5231168000027537],['target'],trial200,001,2023-09-26_21h25.55.397,tutorial3,2023.1.3,60.049384598455156,
48,0,48,0,10,130.67884290008806,130.67884290008806,0.08878879994153976,131.74585550022312,[-0.037037037037037035],[-0.37037037037037035],[1],[0],[0],[1.5405417999718338],['target'],trial200,001,2023-09-26_21h25.55.397,tutorial3,2023.1.3,60.049384598455156,
49,0,49,0,10,132.36047810013406,132.36047810013406,0.11701539997011423,133.39378060004674,[0.3472222222222222],[-0.2951388888888889],[1],[0],[0],[1.9208028998691589],['target'],trial200,001,2023-09-26_21h25.55.397,tutorial3,2023.1.3,60.049384598455156,
50,0,50,0,5,134.3596578000579,134.3596578000579,0.0639048998709768,135.37619960005395,[0.36921296296296297],[0.3854166666666667],[1],[0],[0],[2.40403959993273],['target'],trial200,001,2023-09-26_21h25.55.397,tutorial3,2023.1.3,60.049384598455156,
51,0,51,0,10,136.94044970022514,136.94044970022514,0.13253370020538568,138.00656110001728,[0.034722222222222224],[-0.10532407407407407],[1],[0],[0],[1.7351638998370618],['target'],trial200,001,2023-09-26_21h25.55.397,tutorial3,2023.1.3,60.049384598455156,
52,0,52,0,10,138.73807439999655,138.73807439999655,0.09113939991220832,139.75399080011994,[0.2638888888888889],[-0.06712962962962964],[1],[0],[0],[1.9764097998850048],['target'],trial200,001,2023-09-26_21h25.55.397,tutorial3,2023.1.3,60.049384598455156,
53,0,53,0,10,140.80280570010655,140.80280570010655,0.07707190001383424,141.85258490010165,[0.10185185185185185],[0.49421296296296297],[1],[0],[0],[2.875536600127816],['target'],trial200,001,2023-09-26_21h25.55.397,tutorial3,2023.1.3,60.049384598455156,
54,0,54,0,10,143.7833571000956,143.7833571000956,0.090285399928689,144.816492700018,[-0.25],[-0.3888888888888889],[1],[0],[0],[2.2788001999724656],['target'],trial200,001,2023-09-26_21h25.55.397,tutorial3,2023.1.3,60.049384598455156,
55,0,55,0,5,146.14806530019268,146.14806530019268,0.06092619989067316,147.16961150011048,[0.24189814814814814],[0.1840277777777778],[1],[0],[0],[2.8258113998454064],['target'],trial200,001,2023-09-26_21h25.55.397,tutorial3,2023.1.3,60.049384598455156,
56,0,56,0,10,149.06174760009162,149.06174760009162,0.08589820004999638,150.11151360021904,[0.3506944444444444],[0.45949074074074076],[1],[0],[0],[2.479962799930945],['target'],trial200,001,2023-09-26_21h25.55.397,tutorial3,2023.1.3,60.049384598455156,
57,0,57,0,5,151.6257969001308,151.6257969001308,0.06471400009468198,152.64326900010929,[0.03819444444444445],[0.18055555555555555],[1],[0],[0],[1.7709096998441964],['target'],trial200,001,2023-09-26_21h25.55.397,tutorial3,2023.1.3,60.049384598455156,
58,0,58,0,5,153.47432680008933,153.47432680008933,0.06742440001107752,154.5087751999963,[-0.4537037037037037],[0.48032407407407407],[1],[0],[0],[1.9680017000064254],['target'],trial200,001,2023-09-26_21h25.55.397,tutorial3,2023.1.3,60.049384598455156,
59,0,59,0,10,155.60644710017368,155.60644710017368,0.12284699990414083,156.65549420006573,[0.16435185185185186],[0.41898148148148145],[1],[0],[0],[2.444113800069317],['target'],trial200,001,2023-09-26_21h25.55.397,tutorial3,2023.1.3,60.049384598455156,
60,0,60,0,5,158.0865101001691,158.0865101001691,0.0600362999830395,159.10323540004902,[-0.28703703703703703],[0.09143518518518519],[1],[0],[0],[1.5381909001152962],['target'],trial200,001,2023-09-26_21h25.55.397,tutorial3,2023.1.3,60.049384598455156,
61,0,61,0,5,159.6851226000581,159.6851226000581,0.04813480004668236,160.7021900000982,[-0.3055555555555556],[-0.12384259259259259],[1],[0],[0],[1.721049799816683],['target'],trial200,001,2023-09-26_21h25.55.397,tutorial3,2023.1.3,60.049384598455156,
62,0,62,0,5,161.58463530009612,161.58463530009612,0.14340039994567633,162.60521540022455,[-0.05324074074074074],[-0.16782407407407407],[1],[0],[0],[1.9411045000888407],['target'],trial200,001,2023-09-26_21h25.55.397,tutorial3,2023.1.3,60.049384598455156,
63,0,63,0,5,163.58142980001867,163.58142980001867,0.06089779990725219,164.598296900047,[-0.18287037037037038],[0.1076388888888889],[1],[0],[0],[1.5562110000755638],['target'],trial200,001,2023-09-26_21h25.55.397,tutorial3,2023.1.3,60.049384598455156,
64,0,64,0,5,165.21333090006374,165.21333090006374,0.0607292999047786,166.22994340001605,[0.3090277777777778],[0.07291666666666667],[1],[0],[0],[1.5432317000813782],['target'],trial200,001,2023-09-26_21h25.55.397,tutorial3,2023.1.3,60.049384598455156,
65,0,65,0,10,166.8616790000815,166.8616790000815,0.09416239988058805,167.894868100062,[-0.037037037037037035],[-0.03935185185185185],[1],[0],[0],[1.8759512000251561],['target'],trial200,001,2023-09-26_21h25.55.397,tutorial3,2023.1.3,60.049384598455156,
66,0,66,0,5,168.82669160002843,168.82669160002843,0.0599072000477463,169.84323250013404,[0.4444444444444444],[0.20601851851851852],[1],[0],[0],[1.7609290999826044],['target'],trial200,001,2023-09-26_21h25.55.397,tutorial3,2023.1.3,60.049384598455156,
67,0,67,0,5,170.65822690003552,170.65822690003552,0.06772960000671446,171.69250070001,[0.30324074074074076],[0.06365740740740741],[1],[0],[0],[1.4326101997867227],['target'],trial200,001,2023-09-26_21h25.55.397,tutorial3,2023.1.3,60.049384598455156,
68,0,68,0,10,172.17343090008944,172.17343090008944,0.06950949993915856,173.22321730013937,[0.35532407407407407],[0.3055555555555556],[1],[0],[0],[1.5825973998289555],['target'],trial200,001,2023-09-26_21h25.55.397,tutorial3,2023.1.3,60.049384598455156,
69,0,69,0,10,173.8551653001923,173.8551653001923,0.08300169999711215,174.92230330011807,[0.15625],[0.09259259259259259],[1],[0],[0],[1.5033968999050558],['target'],trial200,001,2023-09-26_21h25.55.397,tutorial3,2023.1.3,60.049384598455156,
70,0,70,0,10,175.4703829002101,175.4703829002101,0.0992465999443084,176.50369330006652,[0.020833333333333332],[-0.29050925925925924],[1],[0],[0],[2.0893278000876307],['target'],trial200,001,2023-09-26_21h25.55.397,tutorial3,2023.1.3,60.049384598455156,
71,0,71,0,5,177.6017630000133,177.6017630000133,0.04005649988539517,178.63509590015747,[0.3263888888888889],[0.47800925925925924],[1],[0],[0],[3.4647325999103487],['target'],trial200,001,2023-09-26_21h25.55.397,tutorial3,2023.1.3,60.049384598455156,
72,0,72,0,10,181.14832520019263,181.14832520019263,0.07743270020000637,182.21510060015135,[-0.2916666666666667],[0.15393518518518517],[1],[0],[0],[1.8889716998673975],['target'],trial200,001,2023-09-26_21h25.55.397,tutorial3,2023.1.3,60.049384598455156,
73,0,73,0,5,183.12986580003053,183.12986580003053,0.06097740004770458,184.16464350000024,[-0.3275462962962963],[0.2349537037037037],[1],[0],[0],[2.4598173000849783],['target'],trial200,001,2023-09-26_21h25.55.397,tutorial3,2023.1.3,60.049384598455156,
74,0,74,0,10,185.67744120000862,185.67744120000862,0.08890280011110008,186.74401590018533,[0.2824074074074074],[0.48726851851851855],[1],[0],[0],[4.050125100184232],['target'],trial200,001,2023-09-26_21h25.55.397,tutorial3,2023.1.3,60.049384598455156,
75,0,75,0,5,189.8070704001002,189.8070704001002,0.06205389997921884,190.8408487001434,[-0.05787037037037037],[0.1388888888888889],[1],[0],[0],[1.7031826998572797],['target'],trial200,001,2023-09-26_21h25.55.397,tutorial3,2023.1.3,60.049384598455156,
76,0,76,0,10,191.63852570019662,191.63852570019662,0.1259433999657631,,[-0.018518518518518517],[0.4826388888888889],[1],[0],[0],[0.9236961000133306],[],trial200,001,2023-09-26_21h25.55.397,tutorial3,2023.1.3,60.049384598455156,
77,0,77,0,10,192.67114420002326,192.67114420002326,0.09472030005417764,193.7542595001869,[0.4224537037037037],[0.2465277777777778],[1],[0],[0],[1.6568090000655502],['target'],trial200,001,2023-09-26_21h25.55.397,tutorial3,2023.1.3,60.049384598455156,
78,0,78,0,5,194.42036410002038,194.42036410002038,0.06595640000887215,195.46954380022362,[0.42592592592592593],[-0.23032407407407407],[1],[0],[0],[2.1020600001793355],['target'],trial200,001,2023-09-26_21h25.55.397,tutorial3,2023.1.3,60.049384598455156,
79,0,79,0,10,196.76791730010882,196.76791730010882,0.2117101999465376,197.80045990017243,[0.18055555555555555],[-0.4722222222222222],[1],[0],[0],[2.4901399000082165],['target'],trial200,001,2023-09-26_21h25.55.397,tutorial3,2023.1.3,60.049384598455156,
80,0,80,0,5,199.29807460005395,199.29807460005395,0.06251309998333454,200.3317832001485,[-0.22800925925925927],[0.02662037037037037],[1],[0],[0],[2.3394241998903453],['target'],trial200,001,2023-09-26_21h25.55.397,tutorial3,2023.1.3,60.049384598455156,
81,0,81,0,5,201.7464733000379,201.7464733000379,0.08577229990623891,202.7790579001885,[-0.02546296296296296],[0.1111111111111111],[1],[0],[0],[1.7655938998796046],['target'],trial200,001,2023-09-26_21h25.55.397,tutorial3,2023.1.3,60.049384598455156,
82,0,82,0,10,203.61067440011539,203.61067440011539,0.08806079998612404,204.64384870021604,[-0.2175925925925926],[-0.34837962962962965],[1],[0],[0],[1.8653984998818487],['target'],trial200,001,2023-09-26_21h25.55.397,tutorial3,2023.1.3,60.049384598455156,
83,0,83,0,10,205.59212670009583,205.59212670009583,0.10160750010982156,206.6256432000082,[-0.024305555555555556],[0.020833333333333332],[1],[0],[0],[2.322069799993187],['target'],trial200,001,2023-09-26_21h25.55.397,tutorial3,2023.1.3,60.049384598455156,
84,0,84,0,5,207.99077330017462,207.99077330017462,0.06347759999334812,209.04065229999833,[-0.2037037037037037],[0.4976851851851852],[1],[0],[0],[3.049104700097814],['target'],trial200,001,2023-09-26_21h25.55.397,tutorial3,2023.1.3,60.049384598455156,
85,0,85,0,10,211.1204863002058,211.1204863002058,0.0766994000878185,212.1535166001413,[0.42939814814814814],[-0.3263888888888889],[1],[0],[0],[2.28796900017187],['target'],trial200,001,2023-09-26_21h25.55.397,tutorial3,2023.1.3,60.049384598455156,
86,0,86,0,5,213.48468180000782,213.48468180000782,0.06257140007801354,214.51834420021623,[0.006944444444444444],[0.45949074074074076],[1],[0],[0],[2.032399500021711],['target'],trial200,001,2023-09-26_21h25.55.397,tutorial3,2023.1.3,60.049384598455156,
87,0,87,0,10,215.6328291001264,215.6328291001264,0.0952518000267446,216.665892300196,[0.20023148148148148],[0.40162037037037035],[1],[0],[0],[2.4219247999135405],['target'],trial200,001,2023-09-26_21h25.55.397,tutorial3,2023.1.3,60.049384598455156,
88,0,88,0,10,218.1470572000835,218.1470572000835,0.0968359000980854,219.1972861001268,[-0.041666666666666664],[-0.2800925925925926],[1],[0],[0],[2.57147610001266],['target'],trial200,001,2023-09-26_21h25.55.397,tutorial3,2023.1.3,60.049384598455156,
89,0,89,0,5,220.79449120000936,220.79449120000936,0.05879000015556812,221.81145720020868,[0.3611111111111111],[-0.1597222222222222],[1],[0],[0],[2.016296099871397],['target'],trial200,001,2023-09-26_21h25.55.397,tutorial3,2023.1.3,60.049384598455156,
90,0,90,0,5,222.8760083001107,222.8760083001107,0.061982000013813376,223.9263332001865,[0.10416666666666667],[-0.42824074074074076],[1],[0],[0],[2.0340171998832375],['target'],trial200,001,2023-09-26_21h25.55.397,tutorial3,2023.1.3,60.049384598455156,
91,0,91,0,5,225.01261680014431,225.01261680014431,0.06519130012020469,226.09271760005504,[0.42824074074074076],[0.3055555555555556],[1],[0],[0],[2.5521987001411617],['target'],trial200,001,2023-09-26_21h25.55.397,tutorial3,2023.1.3,60.049384598455156,
92,0,92,0,5,227.62144290003926,227.62144290003926,0.060327099869027734,228.63818440004252,[0.046296296296296294],[0.3587962962962963],[1],[0],[0],[1.5450744000263512],['target'],trial200,001,2023-09-26_21h25.55.397,tutorial3,2023.1.3,60.049384598455156,
93,0,93,0,10,229.30336090014316,229.30336090014316,0.10111530008725822,230.31915350002237,[0.4351851851851852],[-0.023148148148148147],[1],[0],[0],[1.770268299849704],['target'],trial200,001,2023-09-26_21h25.55.397,tutorial3,2023.1.3,60.049384598455156,
94,0,94,0,5,231.15288960002363,231.15288960002363,0.05440739984624088,232.1851604001131,[0.0625],[-0.4930555555555556],[1],[0],[0],[2.2931953000370413],['target'],trial200,001,2023-09-26_21h25.55.397,tutorial3,2023.1.3,60.049384598455156,
95,0,95,0,5,233.482689200202,233.482689200202,0.059016500134021044,234.5159715001937,[-0.024305555555555556],[-0.48032407407407407],[1],[0],[0],[3.258676999947056],['target'],trial200,001,2023-09-26_21h25.55.397,tutorial3,2023.1.3,60.049384598455156,
96,0,96,0,10,236.9318813001737,236.9318813001737,0.08787719998508692,237.97955300007015,[-0.2847222222222222],[0.20601851851851852],[1],[0],[0],[1.6291908998973668],['target'],trial200,001,2023-09-26_21h25.55.397,tutorial3,2023.1.3,60.049384598455156,
97,0,97,0,10,238.6958848000504,238.6958848000504,0.0775641999207437,239.74478660011664,[-0.22800925925925927],[-0.43171296296296297],[1],[0],[0],[2.057742799865082],['target'],trial200,001,2023-09-26_21h25.55.397,tutorial3,2023.1.3,60.049384598455156,
98,0,98,0,5,240.69252110016532,240.69252110016532,0.057818599976599216,241.7093337001279,[-0.4849537037037037],[-0.3761574074074074],[1],[0],[0],[1.878788499860093],['target'],trial200,001,2023-09-26_21h25.55.397,tutorial3,2023.1.3,60.049384598455156,
99,0,99,0,10,242.67421430000104,242.67421430000104,0.08305250015109777,243.69095230009407,[-0.2800925925925926],[0.4930555555555556],[1],[0],[0],[2.3367957998998463],['target'],trial200,001,2023-09-26_21h25.55.397,tutorial3,2023.1.3,60.049384598455156,
100,0,100,0,5,245.07187120011076,245.07187120011076,0.06107619986869395,246.0887201000005,[-0.2569444444444444],[0.35532407407407407],[1],[0],[0],[1.6707425001077354],['target'],trial200,001,2023-09-26_21h25.55.397,tutorial3,2023.1.3,60.049384598455156,
101,0,101,0,5,246.82024280005135,246.82024280005135,0.06394209992140532,247.83751720003784,[0.11458333333333333],[-0.04398148148148148],[1],[0],[0],[1.4734318000264466],['target'],trial200,001,2023-09-26_21h25.55.397,tutorial3,2023.1.3,60.049384598455156,
102,0,102,0,5,248.36886580009013,248.36886580009013,0.06036940007470548,249.4023166000843,[-0.3229166666666667],[-0.23726851851851852],[1],[0],[0],[1.7581368000246584],['target'],trial200,001,2023-09-26_21h25.55.397,tutorial3,2023.1.3,60.049384598455156,
103,0,103,0,10,250.21705700014718,250.21705700014718,0.08042960008606315,251.25037070014514,[-0.42824074074074076],[0.21180555555555555],[1],[0],[0],[2.0537998999934644],['target'],trial200,001,2023-09-26_21h25.55.397,tutorial3,2023.1.3,60.049384598455156,
104,0,104,0,5,252.36611370020546,252.36611370020546,0.06229880009777844,253.38275190000422,[-0.032407407407407406],[0.38425925925925924],[1],[0],[0],[1.7593008000403643],['target'],trial200,001,2023-09-26_21h25.55.397,tutorial3,2023.1.3,60.049384598455156,
105,0,105,0,5,254.17997350008227,254.17997350008227,0.06370899989269674,255.19727020012215,[0.16666666666666666],[0.29050925925925924],[1],[0],[0],[1.9383610000368208],['target'],trial200,001,2023-09-26_21h25.55.397,tutorial3,2023.1.3,60.049384598455156,
106,0,106,0,10,256.2114419999998,256.2114419999998,0.0724812000989914,257.2614820001181,[0.14351851851851852],[-0.22106481481481483],[1],[0],[0],[2.011020999867469],['target'],trial200,001,2023-09-26_21h25.55.397,tutorial3,2023.1.3,60.049384598455156,
107,0,107,0,10,258.4604524001479,258.4604524001479,0.09286809992045164,259.5266227000393,[-0.47453703703703703],[0.16782407407407407],[1],[0],[0],[2.6934104000683874],['target'],trial200,001,2023-09-26_21h25.55.397,tutorial3,2023.1.3,60.049384598455156,
108,0,108,0,10,261.10684590018354,261.10684590018354,0.06967979995533824,262.1736434001941,[0.48842592592592593],[-0.1840277777777778],[1],[0],[0],[1.6504004001617432],['target'],trial200,001,2023-09-26_21h25.55.397,tutorial3,2023.1.3,60.049384598455156,
109,0,109,0,5,262.88974960008636,262.88974960008636,0.1078150998800993,263.92228760011494,[-0.16782407407407407],[0.37962962962962965],[1],[0],[0],[2.143263400066644],['target'],trial200,001,2023-09-26_21h25.55.397,tutorial3,2023.1.3,60.049384598455156,
110,0,110,0,10,265.1362662001047,265.1362662001047,0.09788250015117228,266.1695894000586,[0.3101851851851852],[0.28587962962962965],[1],[0],[0],[1.5669841999188066],['target'],trial200,001,2023-09-26_21h25.55.397,tutorial3,2023.1.3,60.049384598455156,
111,0,111,0,5,266.76818920020014,266.76818920020014,0.05994750000536442,267.8018390000798,[-0.19328703703703703],[-0.08449074074074074],[1],[0],[0],[1.5608119999524206],['target'],trial200,001,2023-09-26_21h25.55.397,tutorial3,2023.1.3,60.049384598455156,
112,0,112,0,5,268.3999850000255,268.3999850000255,0.05804820009507239,269.43371860007755,[0.12731481481481483],[-0.4270833333333333],[1],[0],[0],[1.6605014000087976],['target'],trial200,001,2023-09-26_21h25.55.397,tutorial3,2023.1.3,60.049384598455156,
113,0,113,0,5,270.1492565001827,270.1492565001827,0.06791559979319572,271.18155980017036,[-0.19328703703703703],[-0.23842592592592593],[1],[0],[0],[1.9339070999994874],['target'],trial200,001,2023-09-26_21h25.55.397,tutorial3,2023.1.3,60.049384598455156,
114,0,114,0,10,272.1797315001022,272.1797315001022,0.08982009999454021,273.21224610018544,[0.17708333333333334],[0.40162037037037035],[1],[0],[0],[2.5270199000369757],['target'],trial200,001,2023-09-26_21h25.55.397,tutorial3,2023.1.3,60.049384598455156,
115,0,115,0,5,274.7946358001791,274.7946358001791,0.06266040005721152,275.8276410000399,[-0.4351851851851852],[-0.09606481481481481],[1],[0],[0],[1.8737730998545885],['target'],trial200,001,2023-09-26_21h25.55.397,tutorial3,2023.1.3,60.049384598455156,
116,0,116,0,10,276.8430567001924,276.8430567001924,0.1468728999607265,277.87549690017477,[-0.4664351851851852],[-0.32407407407407407],[1],[0],[0],[1.2902091001160443],['target'],trial200,001,2023-09-26_21h25.55.397,tutorial3,2023.1.3,60.049384598455156,
117,0,117,0,5,278.19167060009204,278.19167060009204,0.061936500016599894,279.21179920015857,[-0.1412037037037037],[-0.019675925925925927],[1],[0],[0],[1.7586860998999327],['target'],trial200,001,2023-09-26_21h25.55.397,tutorial3,2023.1.3,60.049384598455156,
118,0,118,0,5,280.02251760009676,280.02251760009676,0.06585770007222891,281.07297420012765,[-0.13310185185185186],[-0.42476851851851855],[1],[0],[0],[1.5516967000439763],['target'],trial200,001,2023-09-26_21h25.55.397,tutorial3,2023.1.3,60.049384598455156,
119,0,119,0,10,281.6542483000085,281.6542483000085,0.07484140014275908,282.7211001000833,[-0.09027777777777778],[-0.1261574074074074],[1],[0],[0],[2.392271300079301],['target'],trial200,001,2023-09-26_21h25.55.397,tutorial3,2023.1.3,60.049384598455156,
120,0,120,0,5,284.1693832001183,284.1693832001183,0.09791160002350807,285.185802299995,[-0.36689814814814814],[-0.05324074074074074],[1],[0],[0],[2.487240699818358],['target'],trial200,001,2023-09-26_21h25.55.397,tutorial3,2023.1.3,60.049384598455156,
121,0,121,0,10,286.7834309001919,286.7834309001919,0.11909130006097257,287.83287480007857,[-0.27662037037037035],[0.26157407407407407],[1],[0],[0],[1.7882979998830706],['target'],trial200,001,2023-09-26_21h25.55.397,tutorial3,2023.1.3,60.049384598455156,
122,0,122,0,5,288.63107970007695,288.63107970007695,0.061325799906626344,289.66982550011016,[0.4479166666666667],[-0.08796296296296297],[1],[0],[0],[2.3080335000995547],['target'],trial200,001,2023-09-26_21h25.55.397,tutorial3,2023.1.3,60.049384598455156,
123,0,123,0,5,291.0295983001124,291.0295983001124,0.06678560003638268,292.0626009001862,[-0.3715277777777778],[-0.3599537037037037],[1],[0],[0],[2.115501099964604],['target'],trial200,001,2023-09-26_21h25.55.397,tutorial3,2023.1.3,60.049384598455156,
124,0,124,0,10,293.2434517000802,293.2434517000802,0.09548900020308793,294.29271900001913,[-0.41435185185185186],[-0.4513888888888889],[1],[0],[0],[1.7060813000425696],['target'],trial200,001,2023-09-26_21h25.55.397,tutorial3,2023.1.3,60.049384598455156,
125,0,125,0,10,295.09185450011864,295.09185450011864,0.11949019995518029,296.1584993000142,[0.05324074074074074],[-0.4675925925925926],[1],[0],[0],[1.750690400134772],['target'],trial200,001,2023-09-26_21h25.55.397,tutorial3,2023.1.3,60.049384598455156,
126,0,126,0,10,296.9400242001284,296.9400242001284,0.07934950012713671,298.00646600010805,[-0.3460648148148148],[-0.38773148148148145],[1],[0],[0],[1.556063799886033],['target'],trial200,001,2023-09-26_21h25.55.397,tutorial3,2023.1.3,60.049384598455156,
127,0,127,0,5,298.5726810002234,298.5726810002234,0.06741399993188679,299.5888873001095,[0.3506944444444444],[0.14467592592592593],[1],[0],[0],[1.9503567998763174],['target'],trial200,001,2023-09-26_21h25.55.397,tutorial3,2023.1.3,60.049384598455156,
128,0,128,0,10,300.6199518002104,300.6199518002104,0.0854984000325203,301.6532475000713,[-0.3101851851851852],[-0.24305555555555555],[1],[0],[0],[1.7147936997935176],['target'],trial200,001,2023-09-26_21h25.55.397,tutorial3,2023.1.3,60.049384598455156,
129,0,129,0,5,302.41913610021584,302.41913610021584,0.06579190003685653,303.43997100018896,[-0.39467592592592593],[0.38310185185185186],[1],[0],[0],[2.554913100088015],['target'],trial200,001,2023-09-26_21h25.55.397,tutorial3,2023.1.3,60.049384598455156,
130,0,130,0,5,305.049237200059,305.049237200059,0.06858319998718798,306.08284220006317,[-0.4965277777777778],[0.23032407407407407],[1],[0],[0],[1.6643700001295656],['target'],trial200,001,2023-09-26_21h25.55.397,tutorial3,2023.1.3,60.049384598455156,
131,0,131,0,5,306.7808033002075,306.7808033002075,0.05892960005439818,307.81441600015387,[-0.40162037037037035],[-0.0775462962962963],[1],[0],[0],[1.925319999922067],['target'],trial200,001,2023-09-26_21h25.55.397,tutorial3,2023.1.3,60.049384598455156,
132,0,132,0,5,308.77881990000606,308.77881990000606,0.055048600072041154,309.7963905001525,[-0.018518518518518517],[0.24537037037037038],[1],[0],[0],[1.8303801999427378],['target'],trial200,001,2023-09-26_21h25.55.397,tutorial3,2023.1.3,60.049384598455156,
133,0,133,0,10,310.7107060002163,310.7107060002163,0.09009259985759854,311.7437099001836,[-0.20833333333333334],[-0.3368055555555556],[1],[0],[0],[2.027652299962938],['target'],trial200,001,2023-09-26_21h25.55.397,tutorial3,2023.1.3,60.049384598455156,
134,0,134,0,5,312.8251073001884,312.8251073001884,0.06333540007472038,313.8589957000222,[0.03125],[-0.16666666666666666],[1],[0],[0],[1.5410629999823868],['target'],trial200,001,2023-09-26_21h25.55.397,tutorial3,2023.1.3,60.049384598455156,
135,0,135,0,10,314.49289500014856,314.49289500014856,0.10573780001141131,315.5569742000662,[-0.12384259259259259],[-0.056712962962962965],[1],[0],[0],[1.6122720998246223],['target'],trial200,001,2023-09-26_21h25.55.397,tutorial3,2023.1.3,60.049384598455156,
136,0,136,0,5,316.13932870002463,316.13932870002463,0.04573809984140098,317.15572750009596,[0.010416666666666666],[0.046296296296296294],[1],[0],[0],[2.2575511999893934],['target'],trial200,001,2023-09-26_21h25.55.397,tutorial3,2023.1.3,60.049384598455156,
137,0,137,0,5,318.48730130004697,318.48730130004697,0.06304259994067252,319.5196695001796,[-0.3923611111111111],[-0.25925925925925924],[1],[0],[0],[2.173988400027156],['target'],trial200,001,2023-09-26_21h25.55.397,tutorial3,2023.1.3,60.049384598455156,
138,0,138,0,5,320.7178955001291,320.7178955001291,0.05815399996936321,321.75139840017073,[-0.08912037037037036],[-0.1875],[1],[0],[0],[2.393237000098452],['target'],trial200,001,2023-09-26_21h25.55.397,tutorial3,2023.1.3,60.049384598455156,
139,0,139,0,10,323.2158171001356,323.2158171001356,0.08393229986540973,324.2486396001186,[-0.25578703703703703],[-0.09837962962962964],[1],[0],[0],[1.8171100001782179],['target'],trial200,001,2023-09-26_21h25.55.397,tutorial3,2023.1.3,60.049384598455156,
140,0,140,0,5,325.09698710008524,325.09698710008524,0.06338040018454194,326.1306424001232,[0.2835648148148148],[-0.38425925925925924],[1],[0],[0],[1.789527100045234],['target'],trial200,001,2023-09-26_21h25.55.397,tutorial3,2023.1.3,60.049384598455156,
141,0,141,0,10,326.97850290010683,326.97850290010683,0.07496490003541112,328.02932030009106,[0.33217592592592593],[0.0023148148148148147],[1],[0],[0],[1.726094099925831],['target'],trial200,001,2023-09-26_21h25.55.397,tutorial3,2023.1.3,60.049384598455156,
142,0,142,0,10,328.81376150017604,328.81376150017604,0.093564199982211,329.87704510008916,[-0.037037037037037035],[-0.34837962962962965],[1],[0],[0],[1.9414952001534402],['target'],trial200,001,2023-09-26_21h25.55.397,tutorial3,2023.1.3,60.049384598455156,
143,0,143,0,10,330.8580920000095,330.8580920000095,0.09046570002101362,331.9081343000289,[0.037037037037037035],[-0.4224537037037037],[1],[0],[0],[1.3296781000681221],['target'],trial200,001,2023-09-26_21h25.55.397,tutorial3,2023.1.3,60.049384598455156,
144,0,144,0,10,332.2903950000182,332.2903950000182,0.09061739989556372,333.3239143001847,[0.4525462962962963],[-0.2824074074074074],[1],[0],[0],[2.561346200061962],['target'],trial200,001,2023-09-26_21h25.55.397,tutorial3,2023.1.3,60.049384598455156,
145,0,145,0,5,334.9211074002087,334.9211074002087,0.059994899900630116,335.9378605000675,[0.01273148148148148],[-0.09027777777777778],[1],[0],[0],[1.8430822999216616],['target'],trial200,001,2023-09-26_21h25.55.397,tutorial3,2023.1.3,60.049384598455156,
146,0,146,0,5,336.8537237001583,336.8537237001583,0.0632163998670876,337.86974280001596,[-0.1423611111111111],[0.47800925925925924],[1],[0],[0],[1.7750631000380963],['target'],trial200,001,2023-09-26_21h25.55.397,tutorial3,2023.1.3,60.049384598455156,
147,0,147,0,10,338.71813590009697,338.71813590009697,0.08567940001375973,339.76783800008707,[0.35532407407407407],[-0.26273148148148145],[1],[0],[0],[2.0319444998167455],['target'],trial200,001,2023-09-26_21h25.55.397,tutorial3,2023.1.3,60.049384598455156,
148,0,148,0,5,340.8158044000156,340.8158044000156,0.0622747999150306,341.848451100057,[-0.09722222222222222],[0.08449074074074074],[1],[0],[0],[1.8090605000033975],['target'],trial200,001,2023-09-26_21h25.55.397,tutorial3,2023.1.3,60.049384598455156,
149,0,149,0,5,342.7141595000867,342.7141595000867,0.06864660000428557,343.76421000016853,[-0.013888888888888888],[-0.3125],[1],[0],[0],[1.8311407000292093],['target'],trial200,001,2023-09-26_21h25.55.397,tutorial3,2023.1.3,60.049384598455156,
150,0,150,0,5,344.6294649001211,344.6294649001211,0.06377979996614158,345.6622090002056,[-0.14583333333333334],[-0.2199074074074074],[1],[0],[0],[1.139566299971193],['target'],trial200,001,2023-09-26_21h25.55.397,tutorial3,2023.1.3,60.049384598455156,
151,0,151,0,10,345.8610022000503,345.8610022000503,0.09215489984489977,346.9278798000887,[-0.3020833333333333],[-0.29282407407407407],[1],[0],[0],[1.4415653001051396],['target'],trial200,001,2023-09-26_21h25.55.397,tutorial3,2023.1.3,60.049384598455156,
152,0,152,0,5,347.39356240001507,347.39356240001507,0.06294899992644787,348.4084295001812,[0.004629629629629629],[-0.020833333333333332],[1],[0],[0],[1.7393913001287729],['target'],trial200,001,2023-09-26_21h25.55.397,tutorial3,2023.1.3,60.049384598455156,
153,0,153,0,10,349.2446271001827,349.2446271001827,0.11249520001001656,350.3076243000105,[0.019675925925925927],[-0.25462962962962965],[1],[0],[0],[1.6961068001110107],['target'],trial200,001,2023-09-26_21h25.55.397,tutorial3,2023.1.3,60.049384598455156,
154,0,154,0,5,351.02345010009594,351.02345010009594,0.061035299906507134,352.0561000001617,[0.2962962962962963],[0.28587962962962965],[1],[0],[0],[1.8061289999168366],['target'],trial200,001,2023-09-26_21h25.55.397,tutorial3,2023.1.3,60.049384598455156,
155,0,155,0,10,352.92095719999634,352.92095719999634,0.0852591001894325,353.95448890002444,[0.4722222222222222],[-0.06018518518518518],[1],[0],[0],[2.017501600086689],['target'],trial200,001,2023-09-26_21h25.55.397,tutorial3,2023.1.3,60.049384598455156,
156,0,156,0,10,355.03570520016365,355.03570520016365,0.08526660013012588,356.06891890009865,[0.2974537037037037],[0.03935185185185185],[1],[0],[0],[2.066896599950269],['target'],trial200,001,2023-09-26_21h25.55.397,tutorial3,2023.1.3,60.049384598455156,
157,0,157,0,5,357.1504054001998,357.1504054001998,0.045890399953350425,358.18444690015167,[0.02199074074074074],[0.34375],[1],[0],[0],[1.8748771001119167],['target'],trial200,001,2023-09-26_21h25.55.397,tutorial3,2023.1.3,60.049384598455156,
158,0,158,0,10,359.1319623000454,359.1319623000454,0.09180329996161163,360.165122800041,[-0.2824074074074074],[-0.22569444444444445],[1],[0],[0],[2.007424599956721],['target'],trial200,001,2023-09-26_21h25.55.397,tutorial3,2023.1.3,60.049384598455156,
159,0,159,0,5,361.1969237001613,361.1969237001613,0.04253520001657307,362.2300028000027,[-0.33101851851851855],[-0.16782407407407407],[1],[0],[0],[1.7328313998878002],['target'],trial200,001,2023-09-26_21h25.55.397,tutorial3,2023.1.3,60.049384598455156,
160,0,160,0,5,362.9948426000774,362.9948426000774,0.05915840016677976,364.0284736000467,[-0.056712962962962965],[0.39351851851851855],[1],[0],[0],[2.3412556999828666],['target'],trial200,001,2023-09-26_21h25.55.397,tutorial3,2023.1.3,60.049384598455156,
161,0,161,0,5,365.4096093000844,365.4096093000844,0.061687099980190396,366.44248690013774,[-0.19444444444444445],[0.4861111111111111],[1],[0],[0],[1.7920754000078887],['target'],trial200,001,2023-09-26_21h25.55.397,tutorial3,2023.1.3,60.049384598455156,
162,0,162,0,10,367.3242172000464,367.3242172000464,0.09892769996076822,368.3402433001902,[0.056712962962962965],[0.1840277777777778],[1],[0],[0],[2.2198457999620587],['target'],trial200,001,2023-09-26_21h25.55.397,tutorial3,2023.1.3,60.049384598455156,
163,0,163,0,5,369.6228578002192,369.6228578002192,0.059853299986571074,370.67234910000116,[0.24768518518518517],[0.1111111111111111],[1],[0],[0],[1.694043300114572],['target'],trial200,001,2023-09-26_21h25.55.397,tutorial3,2023.1.3,60.049384598455156,
164,0,164,0,5,371.3704072001856,371.3704072001856,0.053668800042942166,372.3872590002138,[-0.3506944444444444],[-0.1875],[1],[0],[0],[2.480088099837303],['target'],trial200,001,2023-09-26_21h25.55.397,tutorial3,2023.1.3,60.049384598455156,
165,0,165,0,5,373.91791100008413,373.91791100008413,0.05793840019032359,374.9688771001529,[-0.019675925925925927],[-0.17476851851851852],[1],[0],[0],[1.9449758999980986],['target'],trial200,001,2023-09-26_21h25.55.397,tutorial3,2023.1.3,60.049384598455156,
166,0,166,0,5,375.9328122001607,375.9328122001607,0.06367349997162819,376.94990890007466,[-0.47685185185185186],[-0.03009259259259259],[1],[0],[0],[2.1899270999711007],['target'],trial200,001,2023-09-26_21h25.55.397,tutorial3,2023.1.3,60.049384598455156,
167,0,167,0,10,378.23069810005836,378.23069810005836,0.08104679989628494,379.29796940018423,[0.006944444444444444],[0.2465277777777778],[1],[0],[0],[1.949177699862048],['target'],trial200,001,2023-09-26_21h25.55.397,tutorial3,2023.1.3,60.049384598455156,
168,0,168,0,5,380.2452255000826,380.2452255000826,0.0640184001531452,381.28400790016167,[-0.1712962962962963],[-0.20601851851851852],[1],[0],[0],[1.756004200084135],['target'],trial200,001,2023-09-26_21h25.55.397,tutorial3,2023.1.3,60.049384598455156,
169,0,169,0,10,382.1102925001178,382.1102925001178,0.09039959986694157,383.1610344001092,[0.1550925925925926],[0.4351851851851852],[1],[0],[0],[1.8778910997789353],['target'],trial200,001,2023-09-26_21h25.55.397,tutorial3,2023.1.3,60.049384598455156,
170,0,170,0,5,384.076017400017,384.076017400017,0.06417899997904897,385.1087780999951,[0.12384259259259259],[0.2708333333333333],[1],[0],[0],[1.2713065999560058],['target'],trial200,001,2023-09-26_21h25.55.397,tutorial3,2023.1.3,60.049384598455156,
171,0,171,0,10,385.4404612001963,385.4404612001963,0.09356940002180636,386.4904243000783,[-0.09143518518518519],[0.0625],[1],[0],[0],[1.3267367000225931],['target'],trial200,001,2023-09-26_21h25.55.397,tutorial3,2023.1.3,60.049384598455156,
172,0,172,0,10,386.88936620019376,386.88936620019376,0.0971638998016715,387.943748800084,[-0.33217592592592593],[0.11805555555555555],[1],[0],[0],[1.788375400006771],['target'],trial200,001,2023-09-26_21h25.55.397,tutorial3,2023.1.3,60.049384598455156,
173,0,173,0,5,388.755330900196,388.755330900196,0.06289409985765815,389.7878838002216,[-0.2511574074074074],[0.2986111111111111],[1],[0],[0],[2.123330899979919],['target'],trial200,001,2023-09-26_21h25.55.397,tutorial3,2023.1.3,60.049384598455156,
174,0,174,0,10,391.00198280019686,391.00198280019686,0.11249259999021888,392.0685273001436,[0.1388888888888889],[-0.46064814814814814],[1],[0],[0],[2.371360700111836],['target'],trial200,001,2023-09-26_21h25.55.397,tutorial3,2023.1.3,60.049384598455156,
175,0,175,0,5,393.4513458001893,393.4513458001893,0.063788500148803,394.48352940008044,[0.18981481481481483],[-0.18518518518518517],[1],[0],[0],[1.8073227000422776],['target'],trial200,001,2023-09-26_21h25.55.397,tutorial3,2023.1.3,60.049384598455156,
176,0,176,0,5,395.3148120001424,395.3148120001424,0.06273739994503558,396.34787720022723,[-0.1076388888888889],[-0.2361111111111111],[1],[0],[0],[1.4225395999383181],['target'],trial200,001,2023-09-26_21h25.55.397,tutorial3,2023.1.3,60.049384598455156,
177,0,177,0,10,396.83347930014133,396.83347930014133,0.08030900009907782,397.87998350011185,[-0.20601851851851852],[-0.2662037037037037],[1],[0],[0],[1.4704764999914914],['target'],trial200,001,2023-09-26_21h25.55.397,tutorial3,2023.1.3,60.049384598455156,
178,0,178,0,10,398.4116391001735,398.4116391001735,0.09090660000219941,399.4784417001065,[0.3773148148148148],[0.2638888888888889],[1],[0],[0],[1.797810500022024],['target'],trial200,001,2023-09-26_21h25.55.397,tutorial3,2023.1.3,60.049384598455156,
179,0,179,0,5,400.2765477001667,400.2765477001667,0.06135060009546578,401.3100140001625,[-0.2986111111111111],[0.1284722222222222],[1],[0],[0],[2.3072375000920147],['target'],trial200,001,2023-09-26_21h25.55.397,tutorial3,2023.1.3,60.049384598455156,
180,0,180,0,5,402.65774040017277,402.65774040017277,0.06198120000772178,403.67445630021393,[-0.49537037037037035],[-0.09953703703703703],[1],[0],[0],[2.3709885000716895],['target'],trial200,001,2023-09-26_21h25.55.397,tutorial3,2023.1.3,60.049384598455156,
181,0,181,0,10,405.1389573002234,405.1389573002234,0.08927959995344281,406.15519220009446,[-0.3611111111111111],[0.0798611111111111],[1],[0],[0],[2.2138211999554187],['target'],trial200,001,2023-09-26_21h25.55.397,tutorial3,2023.1.3,60.049384598455156,
182,0,182,0,10,407.45332460012287,407.45332460012287,0.08313690009526908,408.48645200021565,[-0.3726851851851852],[-0.2835648148148148],[1],[0],[0],[2.0566539999563247],['target'],trial200,001,2023-09-26_21h25.55.397,tutorial3,2023.1.3,60.049384598455156,
183,0,183,0,10,409.618221900193,409.618221900193,0.09455329994671047,410.6510396001395,[0.2881944444444444],[-0.41087962962962965],[1],[0],[0],[2.3702001001220196],['target'],trial200,001,2023-09-26_21h25.55.397,tutorial3,2023.1.3,60.049384598455156,
184,0,184,0,10,412.0656417000573,412.0656417000573,0.08138530002906919,413.0994224001188,[-0.41203703703703703],[-0.4826388888888889],[1],[0],[0],[3.669788199942559],['target'],trial200,001,2023-09-26_21h25.55.397,tutorial3,2023.1.3,60.049384598455156,
185,0,185,0,5,415.87962380005047,415.87962380005047,0.11363880010321736,416.8957227000501,[0.4525462962962963],[0.30092592592592593],[1],[0],[0],[1.928627299843356],['target'],trial200,001,2023-09-26_21h25.55.397,tutorial3,2023.1.3,60.049384598455156,
186,0,186,0,5,417.8943859001156,417.8943859001156,0.06576769985258579,418.92677440005355,[-0.11805555555555555],[-0.35532407407407407],[1],[0],[0],[2.3814880999270827],['target'],trial200,001,2023-09-26_21h25.55.397,tutorial3,2023.1.3,60.049384598455156,
187,0,187,0,10,420.37454590015113,420.37454590015113,0.09738810011185706,421.4244481001515,[-0.33449074074074076],[0.125],[1],[0],[0],[1.883347800001502],['target'],trial200,001,2023-09-26_21h25.55.397,tutorial3,2023.1.3,60.049384598455156,
188,0,188,0,5,422.28905440005474,422.28905440005474,0.03442520019598305,423.30623930017464,[-0.02199074074074074],[0.22337962962962962],[1],[0],[0],[1.8707185999955982],['target'],trial200,001,2023-09-26_21h25.55.397,tutorial3,2023.1.3,60.049384598455156,
189,0,189,0,5,424.25421120016836,424.25421120016836,0.06695490004494786,425.2696984000504,[-0.03819444444444445],[0.33217592592592593],[1],[0],[0],[1.715852600056678],['target'],trial200,001,2023-09-26_21h25.55.397,tutorial3,2023.1.3,60.049384598455156,
190,0,190,0,5,426.0062508000992,426.0062508000992,0.0338574000634253,427.0183160000015,[-0.2662037037037037],[-0.27662037037037035],[1],[0],[0],[1.8430920999962837],['target'],trial200,001,2023-09-26_21h25.55.397,tutorial3,2023.1.3,60.049384598455156,
191,0,191,0,5,427.91789670009166,427.91789670009166,0.0505111999809742,428.9506795001216,[-0.011574074074074073],[0.004629629629629629],[1],[0],[0],[3.502470700070262],['target'],trial200,001,2023-09-26_21h25.55.397,tutorial3,2023.1.3,60.049384598455156,
192,0,192,0,5,431.49749960005283,431.49749960005283,0.06247670017182827,432.5317378002219,[-0.30439814814814814],[0.36574074074074076],[1],[0],[0],[2.6746543999761343],['target'],trial200,001,2023-09-26_21h25.55.397,tutorial3,2023.1.3,60.049384598455156,
193,0,193,0,5,434.22856730013154,434.22856730013154,0.06239460012875497,435.2621770000551,[-0.3460648148148148],[0.4074074074074074],[1],[0],[0],[2.0910257999785244],['target'],trial200,001,2023-09-26_21h25.55.397,tutorial3,2023.1.3,60.049384598455156,
194,0,194,0,5,436.3761832001619,436.3761832001619,0.04516980005428195,437.3938384000212,[-0.016203703703703703],[0.4201388888888889],[1],[0],[0],[1.688956000143662],['target'],trial200,001,2023-09-26_21h25.55.397,tutorial3,2023.1.3,60.049384598455156,
195,0,195,0,10,438.17450770013966,438.17450770013966,0.0804447999689728,439.20808640006,[0.49074074074074076],[0.19560185185185186],[1],[0],[0],[2.270928299985826],['target'],trial200,001,2023-09-26_21h25.55.397,tutorial3,2023.1.3,60.049384598455156,
196,0,196,0,5,440.5057383000385,440.5057383000385,0.06151910009793937,441.53920630016364,[0.25578703703703703],[-0.09375],[1],[0],[0],[1.557085100095719],['target'],trial200,001,2023-09-26_21h25.55.397,tutorial3,2023.1.3,60.049384598455156,
197,0,197,0,5,442.13741480000317,442.13741480000317,0.05503890011459589,443.1708200001158,[0.10416666666666667],[0.39351851851851855],[1],[0],[0],[2.2293310000095516],['target'],trial200,001,2023-09-26_21h25.55.397,tutorial3,2023.1.3,60.049384598455156,
198,0,198,0,10,444.4685549000278,444.4685549000278,0.09039160003885627,445.51900950004347,[0.23148148148148148],[0.2523148148148148],[1],[0],[0],[1.5299054000061005],['target'],trial200,001,2023-09-26_21h25.55.397,tutorial3,2023.1.3,60.049384598455156,
199,0,199,0,10,446.10074690007605,446.10074690007605,0.08944009989500046,447.1504849002231,[0.49421296296296297],[-0.30092592592592593],[1],[0],[0],[1.9295047000050545],['target'],trial200,001,2023-09-26_21h25.55.397,tutorial3,2023.1.3,60.049384598455156,
